SensorId, TimeStamp (s), FrameNumber, AccX (g), AccY (g), AccZ (g), GyroX (deg/s), GyroY (deg/s), GyroZ (deg/s), MagX (uT), MagY (uT), MagZ (uT), EulerX (deg), EulerY (deg), EulerZ (deg), QuatW, QuatX, QuatY, QuatZ, LinAccX (g), LinAccY (g), LinAccZ (g), Pressure (kPa), Altitude (m), Temperature (degC), HeaveMotion (m)
3, -0.0000, 0, 0.01027637, -0.99303466, 0.15438870, -1.40232539, -0.64373690, 0.24142286, 0.58897257, -39.06915283, 11.50671196, 23.62137985, 7.29579973, -65.19821167, 0.81593859, -0.20563702, 0.05758204, 0.53725415, 0.00000000, 0.00000000, 0.00000000, 0.00000000, 0.00000000, 0.00000000, 0.00000000
1, -0.0000, 0, -0.02728186, -1.00489771, 0.06454296, -0.28542680, -0.29112974, 0.22851582, -34.69640350, -65.98284912, 8.33524990, 90.79782867, -0.80895966, -149.30999756, -0.19065771, 0.18363573, -0.68792379, -0.67578733, 0.00000000, 0.00000000, 0.00000000, 0.00000000, 0.00000000, 0.00000000, 0.00000000
1, 0.0200, 1, -0.02909414, -1.00448132, 0.06445130, -0.31231180, -0.34955257, 0.31109411, -34.48834229, -66.29976654, 8.01432323, 90.79491425, -0.86528653, -149.31381226, -0.19097671, 0.18327449, -0.68800163, -0.67571610, 0.00000000, 0.00000000, 0.00000000, 0.00000000, 0.00000000, 0.00000000, 0.00000000
3, 0.0200, 1, 0.01133715, -0.99367243, 0.15407175, -1.65741038, -0.61014730, 0.20134181, 0.32169288, -39.32736206, 10.94433403, 23.58813095, 7.29478550, -65.21539307, 0.81591910, -0.20538712, 0.05746433, 0.53739202, 0.00000000, 0.00000000, 0.00000000, 0.00000000, 0.00000000, 0.00000000, 0.00000000
1, 0.0400, 2, -0.02829575, -1.00409126, 0.06516241, -0.26817903, -0.21332404, 0.40919265, -34.28029251, -66.61667633, 7.83926630, 90.79142761, -0.87377065, -149.31842041, -0.19100578, 0.18319067, -0.68800175, -0.67573047, 0.00000000, 0.00000000, 0.00000000, 0.00000000, 0.00000000, 0.00000000, 0.00000000
3, 0.0400, 2, 0.00931033, -0.99326652, 0.15523341, -1.36276460, -0.68785125, 0.38051763, 0.64836782, -39.32736206, 10.97741604, 23.56019020, 7.29060602, -65.23231506, 0.81589568, -0.20516087, 0.05739386, 0.53752148, 0.00000000, 0.00000000, 0.00000000, 0.00000000, 0.00000000, 0.00000000, 0.00000000
1, 0.0600, 3, -0.02803570, -1.00534725, 0.06453001, -0.31929880, -0.25217512, 0.42789873, -34.60723877, -66.61667633, 8.16020012, 90.78534698, -0.88298064, -149.32426453, -0.19103608, 0.18309091, -0.68798977, -0.67576110, 0.00000000, 0.00000000, 0.00000000, 0.00000000, 0.00000000, 0.00000000, 0.00000000
3, 0.0600, 3, 0.01258470, -0.99481434, 0.15316442, -1.45069981, -0.57049483, 0.42804697, 0.44048342, -40.46346664, 11.01049328, 23.56736565, 7.29080343, -65.26254272, 0.81574076, -0.20519769, 0.05748020, 0.53773326, 0.00000000, 0.00000000, 0.00000000, 0.00000000, 0.00000000, 0.00000000, 0.00000000
3, 0.0800, 4, 0.01376496, -0.99437714, 0.15148307, -1.47647095, -0.77165914, 0.54312807, 0.64836782, -39.50810623, 10.58043957, 23.53675652, 7.28307581, -65.28340912, 0.81570852, -0.20493454, 0.05742983, 0.53788781, 0.00000000, 0.00000000, 0.00000000, 0.00000000, 0.00000000, 0.00000000, 0.00000000
1, 0.0800, 4, -0.02756176, -1.00628781, 0.06369305, -0.37989995, -0.60267752, 0.41075611, -34.66668320, -66.61667633, 8.39360237, 90.78028107, -0.91837305, -149.33457947, -0.19119492, 0.18281087, -0.68803203, -0.67574894, 0.00000000, 0.00000000, 0.00000000, 0.00000000, 0.00000000, 0.00000000, 0.00000000
3, 0.1000, 5, 0.00997600, -0.99409217, 0.15026389, -1.46615410, -1.03644562, 0.65680104, 1.06413662, -39.24990082, 11.44055176, 23.53106117, 7.27405214, -65.31729889, 0.81557232, -0.20483634, 0.05752901, 0.53812104, 0.00000000, 0.00000000, 0.00000000, 0.00000000, 0.00000000, 0.00000000, 0.00000000
1, 0.1000, 5, -0.02826132, -1.00478947, 0.06311709, -0.03814687, -0.53511065, 0.46459943, -34.31001282, -66.27095032, 8.07267570, 90.78060150, -0.92747712, -149.34687805, -0.19117640, 0.18268374, -0.68806785, -0.67575216, 0.00000000, 0.00000000, 0.00000000, 0.00000000, 0.00000000, 0.00000000, 0.00000000
1, 0.1200, 6, -0.02999730, -1.00443602, 0.06402064, -0.13495679, -0.48618087, 0.49078882, -34.42890549, -65.98284912, 7.95597076, 90.77947235, -0.97236025, -149.35362244, -0.19140670, 0.18237543, -0.68814242, -0.67569429, 0.00000000, 0.00000000, 0.00000000, 0.00000000, 0.00000000, 0.00000000, 0.00000000
3, 0.1200, 6, 0.00736141, -0.99318546, 0.15187113, -1.36517060, -1.65378046, 0.58226746, 0.35138953, -40.46346664, 11.20898151, 23.50295448, 7.26873827, -65.35411835, 0.81545711, -0.20459387, 0.05750123, 0.53839082, 0.00000000, 0.00000000, 0.00000000, 0.00000000, 0.00000000, 0.00000000, 0.00000000
1, 0.1400, 7, -0.02946249, -1.00505602, 0.06259325, -0.26883751, -0.54435617, 0.59815425, -34.60723877, -66.27095032, 8.48112774, 90.77571869, -0.98420721, -149.36546326, -0.19141373, 0.18222791, -0.68815768, -0.67571658, 0.00000000, 0.00000000, 0.00000000, 0.00000000, 0.00000000, 0.00000000, 0.00000000
3, 0.1400, 7, 0.00669608, -0.99500436, 0.15279382, -1.47707784, -1.63446438, 0.53233749, 0.32169288, -39.63721085, 11.60595417, 23.47220421, 7.26406479, -65.39110565, 0.81534475, -0.20433545, 0.05745655, 0.53866380, 0.00000000, 0.00000000, 0.00000000, 0.00000000, 0.00000000, 0.00000000, 0.00000000
1, 0.1600, 8, -0.03030280, -1.00475633, 0.06298508, -0.28220904, -0.60759181, 0.48728886, -34.78557205, -66.18452454, 7.95597076, 90.77137756, -0.99379224, -149.37782288, -0.19140498, 0.18208961, -0.68816680, -0.67574710, 0.00000000, 0.00000000, 0.00000000, 0.00000000, 0.00000000, 0.00000000, 0.00000000
3, 0.1600, 8, 0.00611858, -0.99458104, 0.15215634, -1.39233243, -1.36953890, 0.59902370, 1.12353194, -39.04333115, 11.34130573, 23.46796989, 7.25394535, -65.42806244, 0.81519282, -0.20424110, 0.05757575, 0.53891677, 0.00000000, 0.00000000, 0.00000000, 0.00000000, 0.00000000, 0.00000000, 0.00000000
1, 0.1800, 9, -0.03081416, -1.00475729, 0.06344928, -0.27694604, -0.35919866, 0.49444202, -34.96390915, -66.29976654, 7.60586405, 90.76904297, -1.03814852, -149.38270569, -0.19164500, 0.18179351, -0.68823016, -0.67569417, 0.00000000, 0.00000000, 0.00000000, 0.00000000, 0.00000000, 0.00000000, 0.00000000
3, 0.1800, 9, 0.00597032, -0.99371606, 0.15381218, -1.50669563, -0.98259753, 0.60295004, 0.08410987, -39.48228455, 11.34130573, 23.43718529, 7.24626637, -65.45220947, 0.81514490, -0.20397532, 0.05752952, 0.53909481, 0.00000000, 0.00000000, 0.00000000, 0.00000000, 0.00000000, 0.00000000, 0.00000000
1, 0.2000, 10, -0.03059463, -1.00506115, 0.06395636, -0.18891591, -0.08513316, 0.26511893, -34.22084427, -66.21334076, 8.07267570, 90.76608276, -1.04349494, -149.38479614, -0.19166932, 0.18174432, -0.68822438, -0.67570639, 0.00000000, 0.00000000, 0.00000000, 0.00000000, 0.00000000, 0.00000000, 0.00000000
3, 0.2000, 10, 0.00564511, -0.99381626, 0.15108238, -1.44754434, -0.62457371, 0.63178492, 0.38108814, -39.37900162, 11.01049328, 23.44667816, 7.23337936, -65.47807312, 0.81502450, -0.20397162, 0.05771344, 0.53925860, 0.00000000, 0.00000000, 0.00000000, 0.00000000, 0.00000000, 0.00000000, 0.00000000
3, 0.2200, 11, 0.00744813, -0.99504632, 0.15081133, -1.43239391, -0.53136212, 0.60407889, 0.64836782, -39.09497452, 11.47362995, 23.41719818, 7.22455645, -65.49476624, 0.81501085, -0.20371370, 0.05766822, 0.53938162, 0.00000000, 0.00000000, 0.00000000, 0.00000000, 0.00000000, 0.00000000, 0.00000000
1, 0.2200, 11, -0.02933157, -1.00484061, 0.06191587, -0.18540704, -0.09979567, 0.35391468, -34.75585175, -66.09809875, 7.43081427, 90.76273346, -1.09755754, -149.38285828, -0.19200914, 0.18142992, -0.68828601, -0.67563164, 0.00000000, 0.00000000, 0.00000000, 0.00000000, 0.00000000, 0.00000000, 0.00000000
3, 0.2400, 12, 0.00911399, -0.99482363, 0.14995798, -1.58474493, -0.86523539, 0.68051827, 0.11380847, -39.68884659, 10.87817001, 23.38474846, 7.21472597, -65.51740265, 0.81497580, -0.20342708, 0.05762676, 0.53954720, 0.00000000, 0.00000000, 0.00000000, 0.00000000, 0.00000000, 0.00000000, 0.00000000
1, 0.2400, 12, -0.03006028, -1.00580370, 0.06249332, -0.19928421, -0.26045567, 0.26502648, -34.48834229, -66.27095032, 7.72256899, 90.75894165, -1.10347867, -149.38848877, -0.19201738, 0.18135470, -0.68828177, -0.67565382, 0.00000000, 0.00000000, 0.00000000, 0.00000000, 0.00000000, 0.00000000, 0.00000000
1, 0.2600, 13, -0.02982482, -1.00567591, 0.06178191, -0.17454366, -0.18260296, 0.30692139, -34.48834229, -66.29976654, 8.01432323, 90.75657654, -1.10972357, -149.39244080, -0.19203514, 0.18129000, -0.68828386, -0.67566401, 0.00000000, 0.00000000, 0.00000000, 0.00000000, 0.00000000, 0.00000000, 0.00000000
3, 0.2600, 13, 0.00786508, -0.99409318, 0.14962576, -1.51847708, -0.91408879, 0.71457589, 0.88595080, -39.71466827, 11.70520020, 23.38040352, 7.20309782, -65.54869843, 0.81485242, -0.20332782, 0.05774593, 0.53975803, 0.00000000, 0.00000000, 0.00000000, 0.00000000, 0.00000000, 0.00000000, 0.00000000
1, 0.2800, 14, -0.03095653, -1.00479519, 0.06203382, -0.14383909, -0.07064651, 0.30023313, -34.63695526, -65.89642334, 8.33524990, 90.74738312, -1.16988325, -149.38645935, -0.19244434, 0.18095382, -0.68831390, -0.67560703, 0.00000000, 0.00000000, 0.00000000, 0.00000000, 0.00000000, 0.00000000, 0.00000000
3, 0.2800, 14, 0.00627888, -0.99305272, 0.15143777, -1.59455490, -1.01236010, 0.71194422, 0.67806643, -39.22407913, 11.40746975, 23.34813309, 7.19301367, -65.57436371, 0.81480294, -0.20303982, 0.05771234, 0.53994477, 0.00000000, 0.00000000, 0.00000000, 0.00000000, 0.00000000, 0.00000000, 0.00000000
3, 0.3000, 15, 0.00668601, -0.99472344, 0.14942043, -1.40574181, -0.89410901, 0.67044175, 0.11380847, -39.40481949, 10.71276379, 23.35074806, 7.18155861, -65.60470581, 0.81467140, -0.20299126, 0.05786123, 0.54014558, 0.00000000, 0.00000000, 0.00000000, 0.00000000, 0.00000000, 0.00000000, 0.00000000
1, 0.3000, 15, -0.02951102, -1.00503504, 0.06224376, -0.04139008, -0.04824914, 0.12844682, -34.72613144, -66.53025055, 7.45998669, 90.74647522, -1.17233813, -149.38757324, -0.19245388, 0.18093106, -0.68831420, -0.67561018, 0.00000000, 0.00000000, 0.00000000, 0.00000000, 0.00000000, 0.00000000, 0.00000000
1, 0.3200, 16, -0.02938900, -1.00528133, 0.06046415, -0.15746765, -0.12101000, 0.08669622, -34.63695526, -66.12690735, 8.13102055, 90.70193481, -1.27726185, -149.36038208, -0.19331089, 0.18039699, -0.68817186, -0.67565334, 0.00000000, 0.00000000, 0.00000000, 0.00000000, 0.00000000, 0.00000000, 0.00000000
3, 0.3200, 16, 0.00691588, -0.99493611, 0.15152079, -1.50660205, -1.05124855, 0.62629980, 0.38108814, -39.86959076, 12.03601265, 23.31965065, 7.17264700, -65.63074493, 0.81461620, -0.20271666, 0.05782513, 0.54033577, 0.00000000, 0.00000000, 0.00000000, 0.00000000, 0.00000000, 0.00000000, 0.00000000
3, 0.3400, 17, 0.00517093, -0.99461120, 0.15051942, -1.45777428, -0.81586766, 0.72215396, 0.38108814, -40.43764496, 11.27514553, 23.29006958, 7.16165543, -65.65184784, 0.81458437, -0.20244594, 0.05780240, 0.54048765, 0.00000000, 0.00000000, 0.00000000, 0.00000000, 0.00000000, 0.00000000, 0.00000000
1, 0.3400, 17, -0.03006616, -1.00560200, 0.06153484, -0.15850906, -0.01388223, 0.15421627, -34.45862579, -66.38619995, 8.27689743, 90.69880676, -1.28072143, -149.36109924, -0.19333223, 0.18036687, -0.68815988, -0.67566741, 0.00000000, 0.00000000, 0.00000000, 0.00000000, 0.00000000, 0.00000000, 0.00000000
1, 0.3600, 18, -0.03279889, -1.00527906, 0.06090673, -0.14868350, 0.01530888, 0.17488344, -34.10195160, -66.12690735, 8.30607796, 90.69570160, -1.28398454, -149.36105347, -0.19335684, 0.18034257, -0.68814665, -0.67568034, 0.00000000, 0.00000000, 0.00000000, 0.00000000, 0.00000000, 0.00000000, 0.00000000
3, 0.3600, 18, 0.00276258, -0.99486732, 0.15029761, -1.49357390, -0.80616951, 0.72226357, 0.44048342, -39.22407913, 11.57287598, 23.29545212, 7.14406967, -65.67816925, 0.81447530, -0.20239118, 0.05800138, 0.54065114, 0.00000000, 0.00000000, 0.00000000, 0.00000000, 0.00000000, 0.00000000, 0.00000000
3, 0.3800, 19, 0.00349820, -0.99499786, 0.14833263, -1.12265658, -0.24227247, 0.60082781, 0.38108814, -39.45646286, 11.67211819, 23.27519608, 7.13503838, -65.68462372, 0.81449336, -0.20220302, 0.05798246, 0.54069650, 0.00000000, 0.00000000, 0.00000000, 0.00000000, 0.00000000, 0.00000000, 0.00000000
1, 0.3800, 19, -0.03157082, -1.00474322, 0.06071724, -0.14473778, 0.09333523, -0.04591433, -34.60723877, -65.98284912, 8.68535709, 90.69521332, -1.32077122, -149.35800171, -0.19359528, 0.18014188, -0.68819600, -0.67561531, 0.00000000, 0.00000000, 0.00000000, 0.00000000, 0.00000000, 0.00000000, 0.00000000
3, 0.4000, 20, 0.00109204, -0.99500299, 0.14950810, 0.01587799, 0.66208208, 0.01374147, 0.38108814, -39.66302872, 11.50671196, 23.35090446, 7.11646748, -65.67999268, 0.81440747, -0.20265926, 0.05846567, 0.54060304, 0.00000000, 0.00000000, 0.00000000, 0.00000000, 0.00000000, 0.00000000, 0.00000000
1, 0.4000, 20, -0.03107663, -1.00543797, 0.05977739, -0.22435576, 0.23156214, -0.16267374, -34.63695526, -66.32857513, 7.98514318, 90.69052887, -1.31867111, -149.35289001, -0.19362023, 0.18017712, -0.68815714, -0.67563844, 0.00000000, 0.00000000, 0.00000000, 0.00000000, 0.00000000, 0.00000000, 0.00000000
1, 0.4200, 21, -0.03076643, -1.00617456, 0.05968978, -0.06186363, 0.35079324, -0.21488111, -34.99362946, -66.64548492, 7.63504410, 90.68773651, -1.33502042, -149.34394836, -0.19377485, 0.18012904, -0.68815196, -0.67561209, 0.00000000, 0.00000000, 0.00000000, 0.00000000, 0.00000000, 0.00000000, 0.00000000
3, 0.4200, 21, 0.00458045, -0.99448770, 0.14983018, 0.05024567, 0.83863300, 0.05812060, 0.76715833, -39.79212952, 11.73828220, 23.35195541, 7.11323404, -65.66368866, 0.81448698, -0.20266037, 0.05846517, 0.54048276, 0.00000000, 0.00000000, 0.00000000, 0.00000000, 0.00000000, 0.00000000, 0.00000000
3, 0.4400, 22, 0.00659805, -0.99549413, 0.14865255, -0.05735998, 0.68135357, 0.16397381, 0.35138953, -39.58556747, 12.00293064, 23.35027504, 7.10817719, -65.65050507, 0.81455922, -0.20263225, 0.05847047, 0.54038382, 0.00000000, 0.00000000, 0.00000000, 0.00000000, 0.00000000, 0.00000000, 0.00000000
1, 0.4400, 22, -0.03112700, -1.00470519, 0.06006042, -0.09993535, 0.40439335, -0.06464192, -34.93418503, -66.15571594, 8.42277527, 90.68592834, -1.33396721, -149.33590698, -0.19381885, 0.18018053, -0.68812704, -0.67561120, 0.00000000, 0.00000000, 0.00000000, 0.00000000, 0.00000000, 0.00000000, 0.00000000
1, 0.4600, 23, -0.03048975, -1.00569344, 0.05861469, -0.15765427, 0.26337117, -0.25705343, -34.78557205, -66.12690735, 7.57669163, 90.68222809, -1.33023858, -149.33007813, -0.19383682, 0.18023142, -0.68809026, -0.67562997, 0.00000000, 0.00000000, 0.00000000, 0.00000000, 0.00000000, 0.00000000, 0.00000000
3, 0.4600, 23, 0.00815642, -0.99564981, 0.14664558, -0.07895273, 0.83813727, 0.19768117, 0.49987867, -39.04333115, 11.77136040, 23.41111946, 7.11419439, -65.65956879, 0.81440037, -0.20308733, 0.05872996, 0.54042435, 0.00000000, 0.00000000, 0.00000000, 0.00000000, 0.00000000, 0.00000000, 0.00000000
1, 0.4800, 24, -0.03042194, -1.00470579, 0.05780164, -0.03771013, 0.22406621, -0.15409465, -34.96390915, -65.46427917, 7.60586405, 90.67536163, -1.34907615, -149.32096863, -0.19401371, 0.18016271, -0.68806469, -0.67562354, 0.00000000, 0.00000000, 0.00000000, 0.00000000, 0.00000000, 0.00000000, 0.00000000
3, 0.4800, 24, 0.00839752, -0.99507695, 0.14617524, 0.09153999, 0.25519285, 0.28924140, 0.85625219, -40.05033493, 11.30822372, 23.41276550, 7.10802841, -65.65550232, 0.81442529, -0.20307319, 0.05877508, 0.54038727, 0.00000000, 0.00000000, 0.00000000, 0.00000000, 0.00000000, 0.00000000, 0.00000000
1, 0.5000, 25, -0.02880330, -1.00600934, 0.05746644, -0.08206093, 0.13097100, 0.03192061, -34.78557205, -66.18452454, 7.51833916, 90.67300415, -1.35020006, -149.31837463, -0.19403942, 0.18016765, -0.68804848, -0.67563134, 0.00000000, 0.00000000, 0.00000000, 0.00000000, 0.00000000, 0.00000000, 0.00000000
3, 0.5000, 25, 0.00630406, -0.99527830, 0.14791435, 0.05739756, 0.10808400, 0.21056730, 0.67806643, -40.54092789, 10.31579113, 23.53012657, 7.10046244, -65.68123627, 0.81410617, -0.20385955, 0.05942893, 0.54050052, 0.00000000, 0.00000000, 0.00000000, 0.00000000, 0.00000000, 0.00000000, 0.00000000
3, 0.5200, 26, 0.00460530, -0.99436796, 0.14671977, 0.17281881, 0.40743205, 0.25818640, 0.67806643, -39.68884659, 10.61352158, 23.53325272, 7.09482527, -65.67356873, 0.81414467, -0.20386019, 0.05947077, 0.54043758, 0.00000000, 0.00000000, 0.00000000, 0.00000000, 0.00000000, 0.00000000, 0.00000000
1, 0.5200, 26, -0.03064646, -1.00508308, 0.05896532, 0.11973188, 0.00846125, 0.08206788, -34.69640350, -66.04047394, 7.66421652, 90.66365814, -1.41701484, -149.30810547, -0.19451311, 0.17981680, -0.68808091, -0.67555553, 0.00000000, 0.00000000, 0.00000000, 0.00000000, 0.00000000, 0.00000000, 0.00000000
3, 0.5400, 27, 0.00362153, -0.99488467, 0.14599235, 0.03832129, 0.07974474, 0.13652600, 0.38108814, -39.55974579, 11.30822372, 23.53418350, 7.09186602, -65.67156982, 0.81415665, -0.20385446, 0.05949298, 0.54041928, 0.00000000, 0.00000000, 0.00000000, 0.00000000, 0.00000000, 0.00000000, 0.00000000
1, 0.5400, 27, -0.03288303, -1.00314128, 0.05706276, 0.05591778, 0.11582708, -0.03379923, -34.36945724, -66.15571594, 7.16823244, 90.66432953, -1.41637826, -149.30586243, -0.19452158, 0.17983527, -0.68808037, -0.67554879, 0.00000000, 0.00000000, 0.00000000, 0.00000000, 0.00000000, 0.00000000, 0.00000000
3, 0.5600, 28, 0.00396444, -0.99437118, 0.14803974, 0.26025560, 0.46139041, 0.06343244, -0.06437927, -39.74048615, 11.37438774, 23.60127258, 7.08619595, -65.67586517, 0.81402481, -0.20430313, 0.05985797, 0.54040802, 0.00000000, 0.00000000, 0.00000000, 0.00000000, 0.00000000, 0.00000000, 0.00000000
1, 0.5600, 28, -0.03193139, -1.00501716, 0.05668011, 0.01560697, 0.15002656, -0.04768502, -34.81529617, -66.55905151, 7.69338894, 90.66415405, -1.41530645, -149.30297852, -0.19453251, 0.17985867, -0.68807304, -0.67554682, 0.00000000, 0.00000000, 0.00000000, 0.00000000, 0.00000000, 0.00000000, 0.00000000
3, 0.5800, 29, 0.00398738, -0.99405921, 0.14690337, 0.15026265, 0.25526115, -0.05693258, 0.08410987, -39.37900162, 10.44811535, 23.60377121, 7.08683252, -65.66963196, 0.81404889, -0.20432702, 0.05985405, 0.54036325, 0.00000000, 0.00000000, 0.00000000, 0.00000000, 0.00000000, 0.00000000, 0.00000000
1, 0.5800, 29, -0.03204680, -1.00382555, 0.05844821, -0.02654715, 0.14521609, 0.04139332, -35.02335739, -66.55905151, 7.63504410, 90.64481354, -1.45603907, -149.28781128, -0.19489510, 0.17967500, -0.68799835, -0.67556727, 0.00000000, 0.00000000, 0.00000000, 0.00000000, 0.00000000, 0.00000000, 0.00000000
1, 0.6000, 30, -0.03140604, -1.00427151, 0.05702334, 0.08704207, 0.07324063, 0.06069891, -34.81529617, -66.67430115, 6.81813288, 90.64685059, -1.45711207, -149.28681946, -0.19490415, 0.17967805, -0.68801051, -0.67555147, 0.00000000, 0.00000000, 0.00000000, 0.00000000, 0.00000000, 0.00000000, 0.00000000
3, 0.6000, 30, 0.00446368, -0.99524838, 0.14626603, -0.09409624, 0.49979895, -0.24191543, 0.67806643, -39.92123413, 11.17589951, 23.63407326, 7.08810329, -65.66480255, 0.81401587, -0.20455059, 0.05997913, 0.54031461, 0.00000000, 0.00000000, 0.00000000, 0.00000000, 0.00000000, 0.00000000, 0.00000000
3, 0.6200, 31, 0.00527416, -0.99548280, 0.14594486, -0.02255728, 0.57357717, -0.27989551, 0.44048342, -39.50810623, 10.74584579, 23.63300896, 7.09238672, -65.65343475, 0.81406528, -0.20456836, 0.05992288, 0.54023957, 0.00000000, 0.00000000, 0.00000000, 0.00000000, 0.00000000, 0.00000000, 0.00000000
1, 0.6200, 31, -0.03173701, -1.00566006, 0.05605062, 0.20492718, -0.05886009, 0.30464798, -34.69640350, -67.10645294, 7.98514318, 90.60439301, -1.50646067, -149.26066589, -0.19541901, 0.17946967, -0.68779558, -0.67567688, 0.00000000, 0.00000000, 0.00000000, 0.00000000, 0.00000000, 0.00000000, 0.00000000
1, 0.6400, 32, -0.03099433, -1.00652504, 0.05626466, 0.29724234, 0.08706064, 0.25928697, -34.54779053, -66.53025055, 8.01432323, 90.61054993, -1.51111174, -149.25909424, -0.19544640, 0.17946202, -0.68783665, -0.67562926, 0.00000000, 0.00000000, 0.00000000, 0.00000000, 0.00000000, 0.00000000, 0.00000000
3, 0.6400, 32, 0.00609658, -0.99542147, 0.14785971, -0.11628357, 0.26159170, -0.20022503, 0.79685694, -39.68884659, 11.20898151, 23.63088226, 7.09593391, -65.64830017, 0.81408823, -0.20457199, 0.05987808, 0.54020858, 0.00000000, 0.00000000, 0.00000000, 0.00000000, 0.00000000, 0.00000000, 0.00000000
3, 0.6600, 33, 0.00724011, -0.99577373, 0.14558594, 0.02275503, -0.03629728, -0.07190094, 0.26229760, -39.58556747, 11.01049328, 23.71663857, 7.10799503, -65.68012238, 0.81376785, -0.20521905, 0.06025219, 0.54040426, 0.00000000, 0.00000000, 0.00000000, 0.00000000, 0.00000000, 0.00000000, 0.00000000
1, 0.6600, 33, -0.03070818, -1.00601661, 0.05595759, 0.28056177, 0.10167360, 0.34396863, -34.54779053, -66.29976654, 7.10988760, 90.61632538, -1.51742220, -149.25735474, -0.19548526, 0.17944489, -0.68787777, -0.67558074, 0.00000000, 0.00000000, 0.00000000, 0.00000000, 0.00000000, 0.00000000, 0.00000000
1, 0.6800, 34, -0.03005732, -1.00577152, 0.05731141, 0.25408930, -0.21001047, 0.38455790, -34.87474442, -66.61667633, 7.83926630, 90.62133789, -1.52832305, -149.25996399, -0.19552696, 0.17937297, -0.68792820, -0.67553633, 0.00000000, 0.00000000, 0.00000000, 0.00000000, 0.00000000, 0.00000000, 0.00000000
3, 0.6800, 34, 0.00676355, -0.99580258, 0.14613920, 0.05446296, -0.62462419, 0.10406074, -0.03468066, -40.79913330, 11.04357529, 23.71809196, 7.10742760, -65.69386292, 0.81370127, -0.20521960, 0.06028776, 0.54050040, 0.00000000, 0.00000000, 0.00000000, 0.00000000, 0.00000000, 0.00000000, 0.00000000
1, 0.7000, 35, -0.03454634, -1.00552738, 0.04608546, 0.22156452, -0.30931768, 0.61047333, -35.02335739, -66.67430115, 7.28493738, 90.62616730, -1.53884840, -149.26887512, -0.19552958, 0.17926519, -0.68798691, -0.67550445, 0.00000000, 0.00000000, 0.00000000, 0.00000000, 0.00000000, 0.00000000, 0.00000000
3, 0.7000, 35, 0.00934878, -0.99599081, 0.14683624, 0.07244686, -1.27662933, 0.16342361, 0.61866921, -40.43764496, 11.20898151, 23.74166107, 7.10912704, -65.72808075, 0.81349516, -0.20537660, 0.06044799, 0.54073298, 0.00000000, 0.00000000, 0.00000000, 0.00000000, 0.00000000, 0.00000000, 0.00000000
1, 0.7200, 36, -0.03451500, -1.00484002, 0.05835630, 0.18942061, -0.77112061, 0.43794498, -34.60723877, -66.84715271, 7.57669163, 90.62290955, -1.55349445, -149.28070068, -0.19555229, 0.17910169, -0.68800884, -0.67551887, 0.00000000, 0.00000000, 0.00000000, 0.00000000, 0.00000000, 0.00000000, 0.00000000
3, 0.7200, 36, 0.00468708, -0.99312311, 0.14951329, 0.14902239, -1.62950337, 0.33021218, 0.29199427, -39.58556747, 10.91125202, 23.74413681, 7.10673285, -65.76039886, 0.81334156, -0.20536624, 0.06053486, 0.54095817, 0.00000000, 0.00000000, 0.00000000, 0.00000000, 0.00000000, 0.00000000, 0.00000000
1, 0.7400, 37, -0.03219908, -1.00554240, 0.05688263, 0.09318066, -0.65398848, 0.43635911, -34.81529617, -66.96240234, 7.45998669, 90.62589264, -1.56131697, -149.29386902, -0.19551659, 0.17898120, -0.68805909, -0.67551005, 0.00000000, 0.00000000, 0.00000000, 0.00000000, 0.00000000, 0.00000000, 0.00000000
3, 0.7400, 37, 0.00007474, -0.99435163, 0.14675011, 0.14703070, -1.50214672, 0.45329145, 0.41078481, -39.63721085, 11.27514553, 23.74716759, 7.10154200, -65.78974152, 0.81320500, -0.20534872, 0.06063923, 0.54115856, 0.00000000, 0.00000000, 0.00000000, 0.00000000, 0.00000000, 0.00000000, 0.00000000
1, 0.7600, 38, -0.03167430, -1.00419176, 0.05438552, 0.05786571, -0.95100403, 0.40302220, -34.81529617, -67.04882813, 7.25576496, 90.62909698, -1.56807649, -149.31346130, -0.19543642, 0.17882890, -0.68811893, -0.67551255, 0.00000000, 0.00000000, 0.00000000, 0.00000000, 0.00000000, 0.00000000, 0.00000000
3, 0.7600, 38, 0.00446473, -0.99549252, 0.14242241, 0.32407135, -1.27615309, 0.50435734, 0.02471460, -40.23108292, 10.91125202, 23.75875282, 7.08876228, -65.81229401, 0.81309575, -0.20536098, 0.06082660, 0.54129678, 0.00000000, 0.00000000, 0.00000000, 0.00000000, 0.00000000, 0.00000000, 0.00000000
1, 0.7800, 39, -0.03298362, -1.00545037, 0.05518014, 0.23035221, -0.89784622, 0.40951389, -35.14224243, -66.41500854, 7.28493738, 90.62582397, -1.58034480, -149.32685852, -0.19543572, 0.17867003, -0.68813944, -0.67553389, 0.00000000, 0.00000000, 0.00000000, 0.00000000, 0.00000000, 0.00000000, 0.00000000
3, 0.7800, 39, 0.00267748, -0.99507511, 0.14624310, 0.27691096, -1.86450648, 0.42000693, 0.23259901, -39.04333115, 11.14281750, 23.76429939, 7.08501339, -65.85108948, 0.81290787, -0.20536272, 0.06094939, 0.54156458, 0.00000000, 0.00000000, 0.00000000, 0.00000000, 0.00000000, 0.00000000, 0.00000000
3, 0.8000, 40, 0.00118075, -0.99565876, 0.14629579, 0.30388278, -2.14385843, 0.41837001, 0.85625219, -40.20526123, 11.47362995, 23.77998543, 7.07872248, -65.89263916, 0.81269228, -0.20542328, 0.06114339, 0.54184330, 0.00000000, 0.00000000, 0.00000000, 0.00000000, 0.00000000, 0.00000000, 0.00000000
1, 0.8000, 40, -0.03348763, -1.00554740, 0.05653370, 0.24914064, -0.61056703, 0.51691824, -34.78557205, -66.67430115, 7.78092146, 90.63265228, -1.58898544, -149.34036255, -0.19539693, 0.17854924, -0.68821412, -0.67550105, 0.00000000, 0.00000000, 0.00000000, 0.00000000, 0.00000000, 0.00000000, 0.00000000
3, 0.8200, 41, 0.00338269, -0.99518555, 0.14576299, 0.28260207, -2.05570936, 0.45542535, 0.11380847, -39.86959076, 10.38195133, 23.78525543, 7.07503223, -65.93325806, 0.81249589, -0.20542218, 0.06126775, 0.54212397, 0.00000000, 0.00000000, 0.00000000, 0.00000000, 0.00000000, 0.00000000, 0.00000000
1, 0.8200, 41, -0.03376280, -1.00536776, 0.05625193, 0.30454561, -0.81527758, 0.52589422, -35.14224243, -66.44380951, 7.69338894, 90.63066864, -1.60640657, -149.35255432, -0.19543201, 0.17836913, -0.68824816, -0.67550373, 0.00000000, 0.00000000, 0.00000000, 0.00000000, 0.00000000, 0.00000000, 0.00000000
1, 0.8400, 42, -0.03177657, -1.00505686, 0.05523375, 0.30181414, -0.80059612, 0.39248997, -34.60723877, -66.81835175, 7.89761829, 90.63779449, -1.61305165, -149.36842346, -0.19536698, 0.17824648, -0.68832511, -0.67547655, 0.00000000, 0.00000000, 0.00000000, 0.00000000, 0.00000000, 0.00000000, 0.00000000
3, 0.8400, 42, -0.00007529, -0.99546963, 0.14355350, 0.46594569, -1.61382651, 0.29668367, -0.15347314, -39.61138916, 10.84508705, 23.79419136, 7.07317495, -65.96581268, 0.81232858, -0.20545968, 0.06138177, 0.54234773, 0.00000000, 0.00000000, 0.00000000, 0.00000000, 0.00000000, 0.00000000, 0.00000000
1, 0.8600, 43, -0.03505543, -1.00635254, 0.05401247, 0.49801359, -0.77189344, 0.49245268, -34.72613144, -66.15571594, 7.54751921, 90.64942169, -1.62081492, -149.38490295, -0.19529796, 0.17812113, -0.68843120, -0.67542142, 0.00000000, 0.00000000, 0.00000000, 0.00000000, 0.00000000, 0.00000000, 0.00000000
3, 0.8600, 43, -0.00061030, -0.99554515, 0.14693695, 0.43362731, -2.14332104, 0.22880515, 0.26229760, -40.64421082, 10.77892780, 23.81279945, 7.06765223, -66.00392914, 0.81212246, -0.20554601, 0.06157806, 0.54260117, 0.00000000, 0.00000000, 0.00000000, 0.00000000, 0.00000000, 0.00000000, 0.00000000
1, 0.8800, 44, -0.03755060, -1.00360203, 0.05560108, 0.49338576, -0.75238788, 0.46823147, -34.16139984, -66.44380951, 7.66421652, 90.65540314, -1.63827634, -149.39741516, -0.19531909, 0.17795247, -0.68851268, -0.67537677, 0.00000000, 0.00000000, 0.00000000, 0.00000000, 0.00000000, 0.00000000, 0.00000000
3, 0.8800, 44, -0.00339704, -0.99560070, 0.14564393, 0.24294549, -1.59474862, 0.13134593, 0.52957726, -39.61138916, 10.77892780, 23.81782150, 7.06928015, -66.03450775, 0.81196636, -0.20557255, 0.06164495, 0.54281718, 0.00000000, 0.00000000, 0.00000000, 0.00000000, 0.00000000, 0.00000000, 0.00000000
1, 0.9000, 45, -0.03620883, -1.00434637, 0.05374761, 0.56667346, -0.41156274, 0.36404741, -34.01278687, -66.50144196, 8.16020012, 90.66777802, -1.64303398, -149.40637207, -0.19527546, 0.17789149, -0.68860680, -0.67530942, 0.00000000, 0.00000000, 0.00000000, 0.00000000, 0.00000000, 0.00000000, 0.00000000
3, 0.9000, 45, -0.00323042, -0.99548006, 0.14437008, 0.21486160, -0.92314851, 0.05241725, 0.23259901, -40.25690079, 11.57287598, 23.84191704, 7.05419636, -66.04177856, 0.81191015, -0.20567071, 0.06188084, 0.54283726, 0.00000000, 0.00000000, 0.00000000, 0.00000000, 0.00000000, 0.00000000, 0.00000000
1, 0.9200, 46, -0.03594696, -1.00500751, 0.05496843, 0.41167215, -0.55724341, 0.22106491, -33.86417389, -66.64548492, 7.92679834, 90.66167450, -1.66924357, -149.40968323, -0.19542162, 0.17770542, -0.68861616, -0.67530662, 0.00000000, 0.00000000, 0.00000000, 0.00000000, 0.00000000, 0.00000000, 0.00000000
3, 0.9200, 46, -0.00362908, -0.99523216, 0.14560506, 0.27104282, -0.89355624, 0.03832291, -0.03468066, -39.55974579, 11.60595417, 23.84765625, 7.05558777, -66.05914307, 0.81181562, -0.20570834, 0.06192916, 0.54295886, 0.00000000, 0.00000000, 0.00000000, 0.00000000, 0.00000000, 0.00000000, 0.00000000
3, 0.9400, 47, -0.00365129, -0.99623740, 0.14365040, 0.42370641, -0.86371690, 0.07457641, 0.11380847, -39.17243576, 11.77136040, 23.85613632, 7.05594730, -66.07498932, 0.81172478, -0.20576146, 0.06199520, 0.54306698, 0.00000000, 0.00000000, 0.00000000, 0.00000000, 0.00000000, 0.00000000, 0.00000000
3, 0.9600, 48, -0.00280153, -0.99614608, 0.14435981, 0.44883525, -0.60375136, -0.00908561, 0.26229760, -39.06915283, 10.97741604, 23.88053513, 7.03084469, -66.06606293, 0.81175894, -0.20582487, 0.06227566, 0.54295981, 0.00000000, 0.00000000, 0.00000000, 0.00000000, 0.00000000, 0.00000000, 0.00000000
1, 0.9400, 47, -0.03580598, -1.00610173, 0.05578363, 0.38848457, -0.52303416, 0.09813563, -34.25056458, -67.53859711, 7.69338894, 90.66959381, -1.66941690, -149.42010498, -0.19534901, 0.17765531, -0.68867922, -0.67527652, 0.00000000, 0.00000000, 0.00000000, 0.00000000, 0.00000000, 0.00000000, 0.00000000
1, 0.9600, 48, -0.03765241, -1.00592804, 0.05546317, 0.46846113, -0.44519424, -0.11770894, -34.39917755, -66.44380951, 8.01432323, 90.67899323, -1.66536772, -149.42863464, -0.19526003, 0.17764412, -0.68874162, -0.67524153, 0.00000000, 0.00000000, 0.00000000, 0.00000000, 0.00000000, 0.00000000, 0.00000000
3, 0.9800, 49, -0.00307140, -0.99678653, 0.14626284, 0.35301360, -0.81973106, -0.01962278, 0.08410987, -39.92123413, 11.83752441, 23.88708115, 7.03322744, -66.08083344, 0.81167382, -0.20587404, 0.06231603, 0.54306382, 0.00000000, 0.00000000, 0.00000000, 0.00000000, 0.00000000, 0.00000000, 0.00000000
1, 0.9800, 49, -0.03577757, -1.00402355, 0.05445335, 0.45280954, -0.44029731, -0.09278557, -34.33972931, -66.35738373, 8.01432323, 90.66566467, -1.68422949, -149.42533875, -0.19541258, 0.17752914, -0.68868685, -0.67528355, 0.00000000, 0.00000000, 0.00000000, 0.00000000, 0.00000000, 0.00000000, 0.00000000
1, 1.0000, 50, -0.03489440, -1.00619173, 0.05539406, 0.57493514, -0.45032516, -0.11289750, -34.45862579, -66.53025055, 7.92679834, 90.67761230, -1.67986333, -149.43405151, -0.19531672, 0.17752312, -0.68876404, -0.67523408, 0.00000000, 0.00000000, 0.00000000, 0.00000000, 0.00000000, 0.00000000, 0.00000000
3, 1.0000, 50, -0.00325063, -0.99458599, 0.14326654, 0.51117814, -0.61820090, -0.09923076, 0.61866921, -39.79212952, 11.34130573, 23.91212463, 7.00671387, -66.06903839, 0.81172240, -0.20593713, 0.06260449, 0.54293400, 0.00000000, 0.00000000, 0.00000000, 0.00000000, 0.00000000, 0.00000000, 0.00000000
1, 1.0200, 51, -0.03666589, -1.00532007, 0.05340390, 0.58598459, -0.40162161, -0.16106021, -34.81529617, -67.25050354, 7.57669163, 90.67597198, -1.69334495, -149.43505859, -0.19539371, 0.17743416, -0.68877655, -0.67522252, 0.00000000, 0.00000000, 0.00000000, 0.00000000, 0.00000000, 0.00000000, 0.00000000
3, 1.0200, 51, -0.00355392, -0.99529392, 0.14303747, 0.50634956, -0.47597441, -0.19083436, -0.03468066, -39.53392410, 11.30822372, 23.92287636, 7.01141739, -66.07661438, 0.81166047, -0.20603058, 0.06263518, 0.54298759, 0.00000000, 0.00000000, 0.00000000, 0.00000000, 0.00000000, 0.00000000, 0.00000000
3, 1.0400, 52, -0.00391537, -0.99576092, 0.14514858, 0.51132381, -0.33865285, -0.24251634, 0.47018200, -39.81795120, 11.07665825, 23.93288994, 7.01717377, -66.08180237, 0.81160975, -0.20612489, 0.06265051, 0.54302603, 0.00000000, 0.00000000, 0.00000000, 0.00000000, 0.00000000, 0.00000000, 0.00000000
1, 1.0400, 52, -0.03738490, -1.00430870, 0.05434267, 0.66699094, -0.30441076, -0.14338912, -34.48834229, -66.53025055, 7.98514318, 90.68887329, -1.68771350, -149.44087219, -0.19530585, 0.17745462, -0.68885297, -0.67516452, 0.00000000, 0.00000000, 0.00000000, 0.00000000, 0.00000000, 0.00000000, 0.00000000
1, 1.0600, 53, -0.03574574, -1.00447893, 0.05445097, 0.30695638, 0.37576419, -0.51375145, -35.08279800, -66.73191071, 7.72256899, 90.69332123, -1.67750657, -149.43257141, -0.19528699, 0.17757273, -0.68885070, -0.67514127, 0.00000000, 0.00000000, 0.00000000, 0.00000000, 0.00000000, 0.00000000, 0.00000000
3, 1.0600, 53, -0.00358475, -0.99497211, 0.14614661, 0.46709585, -0.64271539, -0.25999770, 0.02471460, -39.55974579, 10.87817001, 23.95727158, 7.00426340, -66.07825470, 0.81160092, -0.20624071, 0.06285267, 0.54297161, 0.00000000, 0.00000000, 0.00000000, 0.00000000, 0.00000000, 0.00000000, 0.00000000
3, 1.0800, 54, -0.00401272, -0.99571717, 0.14418615, 0.53952485, -0.37760726, -0.46839011, 0.23259901, -39.86959076, 11.47362995, 23.96870041, 7.01373100, -66.08361053, 0.81154156, -0.20636183, 0.06284826, 0.54301494, 0.00000000, 0.00000000, 0.00000000, 0.00000000, 0.00000000, 0.00000000, 0.00000000
1, 1.0800, 54, -0.03635440, -1.00513160, 0.05543327, 0.26580018, 0.43429598, -0.47737122, -34.75585175, -66.38619995, 7.92679834, 90.68707275, -1.68059790, -149.41813660, -0.19540019, 0.17763054, -0.68879628, -0.67514879, 0.00000000, 0.00000000, 0.00000000, 0.00000000, 0.00000000, 0.00000000, 0.00000000
3, 1.1000, 55, -0.00273728, -0.99497032, 0.14521366, 0.56950784, -0.38737455, -0.40351200, 0.32169288, -39.19825745, 11.04357529, 23.99158478, 7.00815535, -66.07994080, 0.81152570, -0.20650055, 0.06299025, 0.54296952, 0.00000000, 0.00000000, 0.00000000, 0.00000000, 0.00000000, 0.00000000, 0.00000000
1, 1.1000, 55, -0.03745535, -1.00510895, 0.05388311, 0.29868123, 0.34174052, -0.62377560, -34.75585175, -66.29976654, 8.07267570, 90.69118500, -1.66797090, -149.40992737, -0.19536693, 0.17776194, -0.68878847, -0.67513186, 0.00000000, 0.00000000, 0.00000000, 0.00000000, 0.00000000, 0.00000000, 0.00000000
1, 1.1200, 56, -0.03750250, -1.00453007, 0.05376392, 0.35103977, 0.41958672, -0.71075052, -34.28029251, -66.81835175, 8.27689743, 90.68670654, -1.66953230, -149.39598083, -0.19546534, 0.17782883, -0.68874282, -0.67513233, 0.00000000, 0.00000000, 0.00000000, 0.00000000, 0.00000000, 0.00000000, 0.00000000
3, 1.1200, 56, -0.00442927, -0.99487466, 0.14246617, 0.58920228, -0.12744910, -0.45718938, 0.14350514, -40.43764496, 11.27514553, 24.00401497, 7.01644611, -66.07890320, 0.81149638, -0.20662688, 0.06298756, 0.54296553, 0.00000000, 0.00000000, 0.00000000, 0.00000000, 0.00000000, 0.00000000, 0.00000000
1, 1.1400, 57, -0.03612892, -1.00600624, 0.05337200, 0.35634112, 0.60466295, -0.71037710, -34.81529617, -66.01166534, 8.33524990, 90.69126892, -1.65560651, -149.38298035, -0.19545174, 0.17799740, -0.68872821, -0.67510676, 0.00000000, 0.00000000, 0.00000000, 0.00000000, 0.00000000, 0.00000000, 0.00000000
3, 1.1400, 57, -0.00446280, -0.99654275, 0.14495160, 0.57373971, 0.20597747, -0.59923095, 0.52957726, -39.81795120, 11.20898151, 24.01638412, 7.02660275, -66.07205200, 0.81149203, -0.20676446, 0.06296064, 0.54292274, 0.00000000, 0.00000000, 0.00000000, 0.00000000, 0.00000000, 0.00000000, 0.00000000
1, 1.1600, 58, -0.03513824, -1.00615644, 0.05371594, 0.19171548, 0.51037294, -0.52025616, -34.72613144, -66.81835175, 7.75174141, 90.69407654, -1.64519906, -149.37211609, -0.19544925, 0.17812923, -0.68871188, -0.67508930, 0.00000000, 0.00000000, 0.00000000, 0.00000000, 0.00000000, 0.00000000, 0.00000000
3, 1.1600, 58, -0.00307705, -0.99603945, 0.14573652, 0.52383238, 0.26476389, -0.73300725, 0.17320374, -39.76631165, 10.34887314, 24.04097939, 7.02414799, -66.05404663, 0.81153643, -0.20693737, 0.06306234, 0.54277867, 0.00000000, 0.00000000, 0.00000000, 0.00000000, 0.00000000, 0.00000000, 0.00000000
1, 1.1800, 59, -0.03823477, -1.00459337, 0.05361407, 0.25548884, 0.47091511, -0.53138143, -34.63695526, -66.27095032, 8.04349613, 90.68395996, -1.65138018, -149.35522461, -0.19560146, 0.17817688, -0.68863547, -0.67511058, 0.00000000, 0.00000000, 0.00000000, 0.00000000, 0.00000000, 0.00000000, 0.00000000
3, 1.1800, 59, -0.00092693, -0.99442023, 0.14535725, 0.36469892, 0.24461414, -0.64903206, 0.44048342, -39.24990082, 10.64660358, 24.04915810, 7.03624392, -66.04605865, 0.81154227, -0.20705473, 0.06299953, 0.54273260, 0.00000000, 0.00000000, 0.00000000, 0.00000000, 0.00000000, 0.00000000, 0.00000000
1, 1.2000, 60, -0.03709399, -1.00419438, 0.05497545, 0.31168669, 0.51462460, -0.54994756, -34.63695526, -66.41500854, 7.45998669, 90.68889618, -1.64041591, -149.34375000, -0.19559602, 0.17831941, -0.68862993, -0.67508024, 0.00000000, 0.00000000, 0.00000000, 0.00000000, 0.00000000, 0.00000000, 0.00000000
3, 1.2000, 60, -0.00003958, -0.99439132, 0.14175120, 0.51273519, 0.46083272, -0.74332356, 0.82655555, -40.41182327, 10.48119736, 24.06318474, 7.03646183, -66.02416229, 0.81162030, -0.20716712, 0.06302480, 0.54257005, 0.00000000, 0.00000000, 0.00000000, 0.00000000, 0.00000000, 0.00000000, 0.00000000
1, 1.2200, 61, -0.03395169, -1.00580037, 0.05403078, 0.40190700, 0.63127035, -0.47719443, -34.69640350, -66.73191071, 7.92679834, 90.68119049, -1.63372910, -149.32437134, -0.19568227, 0.17846234, -0.68854403, -0.67510504, 0.00000000, 0.00000000, 0.00000000, 0.00000000, 0.00000000, 0.00000000, 0.00000000
3, 1.2200, 61, 0.00156388, -0.99608397, 0.14511350, 0.58129066, 0.14732867, -0.79564643, 0.26229760, -39.53392410, 11.14281750, 24.07587814, 7.05144501, -66.01815033, 0.81160432, -0.20732844, 0.06296609, 0.54253906, 0.00000000, 0.00000000, 0.00000000, 0.00000000, 0.00000000, 0.00000000, 0.00000000
1, 1.2400, 62, -0.03320923, -1.00675237, 0.05420938, 0.33110636, 0.49507150, -0.50094455, -35.38002396, -66.09809875, 8.10184860, 90.68688965, -1.62379813, -149.31393433, -0.19567569, 0.17859378, -0.68854612, -0.67507011, 0.00000000, 0.00000000, 0.00000000, 0.00000000, 0.00000000, 0.00000000, 0.00000000
3, 1.2400, 62, 0.00159320, -0.99778980, 0.14438458, 0.49972528, 0.29422149, -0.87740219, 0.20290041, -38.86259079, 10.91125202, 24.08656693, 7.06738377, -66.00894928, 0.81160575, -0.20748165, 0.06288521, 0.54248774, 0.00000000, 0.00000000, 0.00000000, 0.00000000, 0.00000000, 0.00000000, 0.00000000
3, 1.2600, 63, -0.00044255, -0.99303854, 0.14378692, 0.51119733, -0.05384773, -0.83074129, -0.09407593, -39.04333115, 10.24962711, 24.10218620, 7.07145929, -65.99765778, 0.81162512, -0.20761701, 0.06290933, 0.54240429, 0.00000000, 0.00000000, 0.00000000, 0.00000000, 0.00000000, 0.00000000, 0.00000000
1, 1.2600, 63, -0.03702179, -1.00231576, 0.05432501, 0.34675714, 0.26296535, -0.29205748, -34.78557205, -66.04047394, 8.16020012, 90.69338989, -1.61769736, -149.30807495, -0.19566375, 0.17867634, -0.68856579, -0.67503154, 0.00000000, 0.00000000, 0.00000000, 0.00000000, 0.00000000, 0.00000000, 0.00000000
3, 1.2800, 64, -0.00302291, -0.99419379, 0.14671074, 0.64393723, 0.14761463, -0.92044055, 0.49987867, -39.40481949, 11.47362995, 24.11626816, 7.08817148, -65.98999023, 0.81161189, -0.20779690, 0.06284166, 0.54236287, 0.00000000, 0.00000000, 0.00000000, 0.00000000, 0.00000000, 0.00000000, 0.00000000
1, 1.2800, 64, -0.03623269, -1.00509810, 0.05550491, 0.28560132, 0.44205409, -0.16399500, -34.33972931, -65.86761475, 7.98514318, 90.68835449, -1.63715351, -149.29478455, -0.19586580, 0.17863201, -0.68854541, -0.67500550, 0.00000000, 0.00000000, 0.00000000, 0.00000000, 0.00000000, 0.00000000, 0.00000000
1, 1.3000, 65, -0.03647452, -1.00485063, 0.05541594, 0.31228045, 0.45663649, -0.23792265, -34.51807022, -66.29976654, 8.56865215, 90.69350433, -1.63248193, -149.28543091, -0.19588500, 0.17872472, -0.68855399, -0.67496669, 0.00000000, 0.00000000, 0.00000000, 0.00000000, 0.00000000, 0.00000000, 0.00000000
3, 1.3000, 65, -0.00125951, -0.99473262, 0.14794010, 0.66501510, 0.48611191, -1.13724422, 0.11380847, -39.66302872, 11.27514553, 24.13939476, 7.09989166, -65.97135162, 0.81164134, -0.20802416, 0.06283283, 0.54223269, 0.00000000, 0.00000000, 0.00000000, 0.00000000, 0.00000000, 0.00000000, 0.00000000
3, 1.3200, 66, -0.00017112, -0.99598634, 0.14741547, 0.79276049, 0.46197623, -1.13238204, 0.08410987, -39.43064117, 10.54735756, 24.15587997, 7.11982727, -65.95698547, 0.81165075, -0.20823933, 0.06274109, 0.54214668, 0.00000000, 0.00000000, 0.00000000, 0.00000000, 0.00000000, 0.00000000, 0.00000000
1, 1.3200, 66, -0.03501053, -1.00515914, 0.05548613, 0.30125079, 0.32026261, -0.19724107, -34.87474442, -66.78954315, 8.30607796, 90.68124390, -1.64840198, -149.27145386, -0.19608137, 0.17869322, -0.68848449, -0.67498893, 0.00000000, 0.00000000, 0.00000000, 0.00000000, 0.00000000, 0.00000000, 0.00000000
3, 1.3400, 67, 0.00086222, -0.99584943, 0.14908813, 0.46122339, 0.19129172, -1.04503989, 0.52957726, -39.71466827, 10.94433403, 24.16644287, 7.13946772, -65.95019531, 0.81163549, -0.20840706, 0.06263717, 0.54211718, 0.00000000, 0.00000000, 0.00000000, 0.00000000, 0.00000000, 0.00000000, 0.00000000
1, 1.3400, 67, -0.03515358, -1.00549161, 0.05558683, 0.22543623, 0.14998329, -0.22692940, -34.81529617, -66.21334076, 8.04349613, 90.68472290, -1.64319348, -149.26831055, -0.19606352, 0.17874908, -0.68849200, -0.67497164, 0.00000000, 0.00000000, 0.00000000, 0.00000000, 0.00000000, 0.00000000, 0.00000000
1, 1.3600, 68, -0.03545221, -1.00564766, 0.05565162, 0.18701918, 0.02677123, -0.19702180, -34.57751846, -66.61667633, 8.07267570, 90.68782806, -1.63924587, -149.26739502, -0.19604045, 0.17878325, -0.68850279, -0.67495823, 0.00000000, 0.00000000, 0.00000000, 0.00000000, 0.00000000, 0.00000000, 0.00000000
3, 1.3600, 68, -0.00092142, -0.99481434, 0.14944735, -0.07156125, -0.18357530, -0.11675802, 0.11380847, -40.02451706, 11.34130573, 24.22038078, 7.07558870, -65.91340637, 0.81180316, -0.20851938, 0.06328570, 0.54174751, 0.00000000, 0.00000000, 0.00000000, 0.00000000, 0.00000000, 0.00000000, 0.00000000
3, 1.3800, 69, -0.00087868, -0.99524748, 0.14511546, 0.28817084, 0.25865984, -0.05984815, 0.49987867, -39.09497452, 10.64660358, 24.22627640, 7.07584620, -65.90721130, 0.81182140, -0.20856574, 0.06330042, 0.54170066, 0.00000000, 0.00000000, 0.00000000, 0.00000000, 0.00000000, 0.00000000, 0.00000000
1, 1.3800, 69, -0.03540786, -1.00436974, 0.05559034, 0.14954887, -0.08509322, -0.18878205, -34.87474442, -66.27095032, 7.75174141, 90.64474487, -1.69202352, -149.24998474, -0.19652475, 0.17850067, -0.68830311, -0.67509586, 0.00000000, 0.00000000, 0.00000000, 0.00000000, 0.00000000, 0.00000000, 0.00000000
1, 1.4000, 70, -0.03619117, -1.00415325, 0.05549387, 0.07846037, -0.03134567, -0.18227948, -34.48834229, -66.47262573, 8.16020012, 90.64621735, -1.68856502, -149.25012207, -0.19650100, 0.17852286, -0.68830669, -0.67509329, 0.00000000, 0.00000000, 0.00000000, 0.00000000, 0.00000000, 0.00000000, 0.00000000
3, 1.4000, 70, 0.00248315, -0.99500793, 0.14636280, 0.23955725, 0.00367851, -0.16617526, 0.47018200, -38.94005203, 11.17589951, 24.24353218, 7.07400465, -65.90785980, 0.81178951, -0.20867927, 0.06339647, 0.54169339, 0.00000000, 0.00000000, 0.00000000, 0.00000000, 0.00000000, 0.00000000, 0.00000000
1, 1.4200, 71, -0.03211159, -1.00575507, 0.05344518, -0.02255766, -0.20643000, -0.22201984, -34.87474442, -66.27095032, 7.19741249, 90.62671661, -1.68829179, -149.24504089, -0.19655971, 0.17852159, -0.68818349, -0.67520213, 0.00000000, 0.00000000, 0.00000000, 0.00000000, 0.00000000, 0.00000000, 0.00000000
3, 1.4200, 71, 0.00438033, -0.99617791, 0.14726354, -0.00971130, -0.44327033, -0.04779007, 0.67806643, -39.45646286, 10.51427555, 24.24359703, 7.07623291, -65.91667938, 0.81174445, -0.20868497, 0.06339678, 0.54175866, 0.00000000, 0.00000000, 0.00000000, 0.00000000, 0.00000000, 0.00000000, 0.00000000
1, 1.4400, 72, -0.03434077, -1.00533056, 0.05643630, 0.11800186, -0.39676505, -0.14819258, -34.87474442, -66.78954315, 7.72256899, 90.62938690, -1.68517601, -149.25247192, -0.19649319, 0.17850003, -0.68820596, -0.67520422, 0.00000000, 0.00000000, 0.00000000, 0.00000000, 0.00000000, 0.00000000, 0.00000000
3, 1.4400, 72, 0.00273362, -0.99491143, 0.14760636, 0.08658937, -0.52150398, 0.05567409, 0.35138953, -39.43064117, 10.58043957, 24.24549294, 7.07643080, -65.92704773, 0.81169176, -0.20869356, 0.06342319, 0.54183125, 0.00000000, 0.00000000, 0.00000000, 0.00000000, 0.00000000, 0.00000000, 0.00000000
3, 1.4600, 73, 0.00211098, -0.99535936, 0.14749488, 0.09732477, -0.47008511, 0.16649768, 0.70776308, -39.35317993, 11.14281750, 24.26175880, 7.06624317, -65.93440247, 0.81164199, -0.20875846, 0.06358691, 0.54186165, 0.00000000, 0.00000000, 0.00000000, 0.00000000, 0.00000000, 0.00000000, 0.00000000
1, 1.4600, 73, -0.03499819, -1.00413740, 0.05662675, 0.00034779, -0.39612427, -0.01450521, -35.26113510, -66.61667633, 7.89761829, 90.62916565, -1.68494034, -149.26069641, -0.19644371, 0.17845170, -0.68821710, -0.67522007, 0.00000000, 0.00000000, 0.00000000, 0.00000000, 0.00000000, 0.00000000, 0.00000000
1, 1.4800, 74, -0.03379807, -1.00642896, 0.05559931, -0.10649174, -0.66969639, -0.00937524, -34.87474442, -66.84715271, 7.60586405, 90.61382294, -1.69339299, -149.26773071, -0.19647652, 0.17833297, -0.68815064, -0.67530960, 0.00000000, 0.00000000, 0.00000000, 0.00000000, 0.00000000, 0.00000000, 0.00000000
3, 1.4800, 74, 0.00515836, -0.99639469, 0.14867184, -0.01191330, -0.45457920, 0.29393309, 0.79685694, -39.32736206, 10.61352158, 24.26124763, 7.06135559, -65.94512939, 0.81159920, -0.20872670, 0.06363927, 0.54193181, 0.00000000, 0.00000000, 0.00000000, 0.00000000, 0.00000000, 0.00000000, 0.00000000
1, 1.5000, 75, -0.03390358, -1.00618541, 0.05582621, -0.22928934, -0.97627419, 0.02640211, -34.75585175, -66.04047394, 7.89761829, 90.60942078, -1.69329643, -149.28779602, -0.19636448, 0.17820542, -0.68815577, -0.67537063, 0.00000000, 0.00000000, 0.00000000, 0.00000000, 0.00000000, 0.00000000, 0.00000000
3, 1.5000, 75, 0.00491270, -0.99448079, 0.14777237, 0.12080760, -0.93479639, 0.52285731, 0.73746169, -39.53392410, 10.97741604, 24.26580811, 7.05104017, -65.96407318, 0.81151605, -0.20870161, 0.06376965, 0.54205048, 0.00000000, 0.00000000, 0.00000000, 0.00000000, 0.00000000, 0.00000000, 0.00000000
3, 1.5200, 76, 0.00316696, -0.99510837, 0.14838119, -0.01833638, -1.07752287, 0.70396280, 0.76715833, -39.19825745, 10.84508705, 24.26561546, 7.03998661, -65.98760986, 0.81142092, -0.20863694, 0.06389123, 0.54220343, 0.00000000, 0.00000000, 0.00000000, 0.00000000, 0.00000000, 0.00000000, 0.00000000
1, 1.5200, 76, -0.03430926, -1.00566602, 0.05489920, -0.28690556, -1.40966666, 0.09818153, -34.84501648, -66.38619995, 8.33524990, 90.59938049, -1.69708860, -149.31629944, -0.19623470, 0.17799455, -0.68814671, -0.67547321, 0.00000000, 0.00000000, 0.00000000, 0.00000000, 0.00000000, 0.00000000, 0.00000000
1, 1.5400, 77, -0.03122766, -1.00963438, 0.04664570, -1.45421124, -4.42634439, -0.69254965, -34.84501648, -67.50978851, 8.04349613, 90.56892395, -1.68059802, -149.40782166, -0.19564407, 0.17749089, -0.68808377, -0.67584103, 0.00000000, 0.00000000, 0.00000000, 0.00000000, 0.00000000, 0.00000000, 0.00000000
3, 1.5400, 77, 0.00084696, -0.99671155, 0.15225311, 0.23011032, -1.47905624, 1.05520177, 0.94534606, -39.35317993, 10.81200981, 24.26913643, 7.02243423, -66.02073669, 0.81128299, -0.20856364, 0.06409463, 0.54241407, 0.00000000, 0.00000000, 0.00000000, 0.00000000, 0.00000000, 0.00000000, 0.00000000
1, 1.5600, 78, -0.02680708, -1.00858796, 0.04379793, -2.19522977, -8.28680420, -1.25478446, -34.63695526, -66.64548492, 8.65618515, 90.52552032, -1.65011573, -149.57540894, -0.19454062, 0.17659199, -0.68804002, -0.67643929, 0.00000000, 0.00000000, 0.00000000, 0.00000000, 0.00000000, 0.00000000, 0.00000000
3, 1.5600, 78, -0.00124913, -1.00207114, 0.15224127, 0.11983123, -2.34273815, 1.73411083, 0.73746169, -40.07615662, 10.64660358, 24.27379227, 6.98855495, -66.07062531, 0.81108689, -0.20841454, 0.06445141, 0.54272228, 0.00000000, 0.00000000, 0.00000000, 0.00000000, 0.00000000, 0.00000000, 0.00000000
1, 1.5800, 79, -0.04147524, -1.00818765, 0.04566148, -3.24223852, -12.44367218, -1.75121427, -34.48834229, -66.53025055, 8.18937302, 90.45857239, -1.60868382, -149.82409668, -0.19292760, 0.17523238, -0.68796331, -0.67733228, 0.00000000, 0.00000000, 0.00000000, 0.00000000, 0.00000000, 0.00000000, 0.00000000
3, 1.5800, 79, 0.00093338, -0.99959880, 0.15491807, 0.25517273, -3.06870985, 2.77224231, 0.91564751, -39.19825745, 10.01806164, 24.27580261, 6.94032049, -66.14071655, 0.81082022, -0.20816967, 0.06493557, 0.54315680, 0.00000000, 0.00000000, 0.00000000, 0.00000000, 0.00000000, 0.00000000, 0.00000000
1, 1.6000, 80, -0.05502506, -1.00919867, 0.03505583, -4.48402071, -13.86744022, -2.52085900, -34.81529617, -66.06928253, 8.24772549, 90.36788940, -1.55246007, -150.09739685, -0.19111399, 0.17377502, -0.68775815, -0.67842948, 0.00000000, 0.00000000, 0.00000000, 0.00000000, 0.00000000, 0.00000000, 0.00000000
3, 1.6000, 80, -0.00214422, -0.99310040, 0.16913812, 0.59577125, -4.26026917, 4.40495396, 0.47018200, -39.61138916, 10.24962711, 24.29507637, 6.86202431, -66.24169922, 0.81041843, -0.20789161, 0.06577361, 0.54376191, 0.00000000, 0.00000000, 0.00000000, 0.00000000, 0.00000000, 0.00000000, 0.00000000
1, 1.6200, 81, -0.04687904, -1.01337242, 0.04634167, -7.02755404, -15.77991867, -3.46321988, -34.96390915, -66.29976654, 8.83123398, 90.22184753, -1.48033357, -150.41087341, -0.18904662, 0.17208248, -0.68725741, -0.67994589, 0.00000000, 0.00000000, 0.00000000, 0.00000000, 0.00000000, 0.00000000, 0.00000000
3, 1.6200, 81, 0.01231799, -1.00261045, 0.16403361, 0.79495758, -5.83956242, 6.07284069, 0.64836782, -39.12079620, 10.87817001, 24.30366325, 6.75699997, -66.37720490, 0.80990916, -0.20739435, 0.06681497, 0.54458278, 0.00000000, 0.00000000, 0.00000000, 0.00000000, 0.00000000, 0.00000000, 0.00000000
1, 1.6400, 82, -0.00939758, -1.00690770, 0.05479129, -7.26930523, -19.63680267, -3.84690356, -34.66668320, -66.76072693, 7.89761829, 90.07249451, -1.40179217, -150.79487610, -0.18652043, 0.17000514, -0.68682641, -0.68159962, 0.00000000, 0.00000000, 0.00000000, 0.00000000, 0.00000000, 0.00000000, 0.00000000
3, 1.6400, 82, 0.03042043, -0.99825400, 0.16330583, 1.20626473, -8.32038975, 7.90976715, 0.38108814, -39.09497452, 11.73828220, 24.32156754, 6.62198305, -66.56545258, 0.80917323, -0.20679182, 0.06821007, 0.54573184, 0.00000000, 0.00000000, 0.00000000, 0.00000000, 0.00000000, 0.00000000, 0.00000000
3, 1.6600, 83, 0.04108190, -1.00569189, 0.16373962, 1.31726277, -11.00801182, 9.75067043, 0.76715833, -38.99169159, 11.04357529, 24.34238434, 6.46540785, -66.82107544, 0.80813837, -0.20606539, 0.06989282, 0.54732496, 0.00000000, 0.00000000, 0.00000000, 0.00000000, 0.00000000, 0.00000000, 0.00000000
1, 1.6600, 83, -0.01060524, -1.01538432, 0.03973443, -8.53212357, -19.59043503, -2.72046280, -34.93418503, -66.64548492, 8.24772549, 89.90342712, -1.34878445, -151.18515015, -0.18412954, 0.16771100, -0.68631643, -0.68332940, 0.00000000, 0.00000000, 0.00000000, 0.00000000, 0.00000000, 0.00000000, 0.00000000
1, 1.6800, 84, -0.01656905, -1.01395571, 0.04479265, -8.70995712, -18.95210075, -2.36999631, -34.63695526, -67.36574554, 8.07267570, 89.73181915, -1.30435407, -151.55757141, -0.18189105, 0.16547415, -0.68576843, -0.68502235, 0.00000000, 0.00000000, 0.00000000, 0.00000000, 0.00000000, 0.00000000, 0.00000000
3, 1.6800, 84, 0.03007334, -1.00414598, 0.16209425, 0.71047097, -14.78632355, 11.88785362, 0.05441320, -39.79212952, 11.10974026, 24.34799957, 6.27189779, -67.15187836, 0.80681783, -0.20500724, 0.07189845, 0.54940659, 0.00000000, 0.00000000, 0.00000000, 0.00000000, 0.00000000, 0.00000000, 0.00000000
1, 1.7000, 85, -0.00024116, -1.01001084, 0.03580713, -7.85946465, -17.00624275, -1.53080440, -34.39917755, -67.30811310, 8.45195484, 89.58012390, -1.27785218, -151.89573669, -0.17992738, 0.16337115, -0.68530756, -0.68650532, 0.00000000, 0.00000000, 0.00000000, 0.00000000, 0.00000000, 0.00000000, 0.00000000
3, 1.7000, 85, 0.02145151, -0.99590498, 0.15090238, 0.55205601, -18.11635208, 12.97723579, 0.32169288, -39.09497452, 11.10974026, 24.35430908, 6.07177353, -67.55745697, 0.80513793, -0.20386454, 0.07408191, 0.55200011, 0.00000000, 0.00000000, 0.00000000, 0.00000000, 0.00000000, 0.00000000, 0.00000000
1, 1.7200, 86, -0.01705025, -1.00619876, 0.03757568, -6.76381111, -16.81449509, -0.61820644, -34.63695526, -67.48097992, 8.53948021, 89.45052338, -1.26796627, -152.22740173, -0.17806335, 0.16124530, -0.68498605, -0.68781364, 0.00000000, 0.00000000, 0.00000000, 0.00000000, 0.00000000, 0.00000000, 0.00000000
3, 1.7200, 86, 0.00010941, -0.99447685, 0.15931480, 0.10188642, -23.64665413, 11.87727833, -0.06437927, -38.91423416, 11.04357529, 24.35169411, 5.90972996, -68.06370544, 0.80292267, -0.20275733, 0.07612184, 0.55534703, 0.00000000, 0.00000000, 0.00000000, 0.00000000, 0.00000000, 0.00000000, 0.00000000
3, 1.7400, 87, -0.03887327, -0.99064416, 0.17123833, -1.22758889, -26.12924576, 9.44250107, -0.48014808, -39.24990082, 11.30822372, 24.33018303, 5.80357313, -68.61137390, 0.80044532, -0.20173946, 0.07773775, 0.55905753, 0.00000000, 0.00000000, 0.00000000, 0.00000000, 0.00000000, 0.00000000, 0.00000000
1, 1.7400, 87, -0.01640500, -1.00832999, 0.03299973, -5.52352619, -14.43112087, 0.01550592, -34.39917755, -66.93358612, 8.62700462, 89.34676361, -1.26968277, -152.51330566, -0.17650132, 0.15936568, -0.68476516, -0.68887347, 0.00000000, 0.00000000, 0.00000000, 0.00000000, 0.00000000, 0.00000000, 0.00000000
1, 1.7600, 88, -0.01527071, -1.01212037, 0.04047689, -4.95718145, -12.62555313, 0.26082078, -34.13167953, -66.70310974, 8.59783268, 89.25390625, -1.27692199, -152.76560974, -0.17515498, 0.15767190, -0.68456572, -0.68980443, 0.00000000, 0.00000000, 0.00000000, 0.00000000, 0.00000000, 0.00000000, 0.00000000
3, 1.7600, 88, -0.06861146, -1.00314367, 0.19162260, -2.48955727, -24.43471146, 6.83356953, -0.21286841, -38.91423416, 11.40746975, 24.28763962, 5.74024105, -69.11265564, 0.79815513, -0.20079994, 0.07885838, 0.56250262, 0.00000000, 0.00000000, 0.00000000, 0.00000000, 0.00000000, 0.00000000, 0.00000000
1, 1.7800, 89, -0.01630911, -0.99793530, 0.05695210, -3.83926702, -13.40291691, 0.69942218, -34.25056458, -66.78954315, 9.00628376, 89.18833160, -1.28928268, -153.03695679, -0.17368379, 0.15587626, -0.68455917, -0.69059056, 0.00000000, 0.00000000, 0.00000000, 0.00000000, 0.00000000, 0.00000000, 0.00000000
3, 1.7800, 89, -0.06149473, -0.98894995, 0.19391029, -3.86143255, -22.45097351, 3.86617088, 0.44048342, -39.63721085, 11.34130573, 24.21694946, 5.73713350, -69.57314301, 0.79601604, -0.19997554, 0.07933757, 0.56575060, 0.00000000, 0.00000000, 0.00000000, 0.00000000, 0.00000000, 0.00000000, 0.00000000
3, 1.8000, 90, -0.06773447, -0.97848278, 0.18905050, -4.70389938, -20.35224533, 0.06825683, -0.15347314, -39.58556747, 11.53979397, 24.13691139, 5.79330111, -69.97751617, 0.79407555, -0.19940999, 0.07925050, 0.56868196, 0.00000000, 0.00000000, 0.00000000, 0.00000000, 0.00000000, 0.00000000, 0.00000000
1, 1.8000, 90, -0.03120299, -0.98674828, 0.06400917, -4.16932583, -13.51929188, 1.28589237, -34.04251099, -66.87596893, 8.21855259, 89.10981750, -1.31474531, -153.30599976, -0.17231885, 0.15399621, -0.68448448, -0.69142783, 0.00000000, 0.00000000, 0.00000000, 0.00000000, 0.00000000, 0.00000000, 0.00000000
1, 1.8200, 91, -0.02533039, -1.03399014, 0.02485133, -5.62739992, -12.22455025, 0.31200403, -34.42890549, -66.99120331, 9.21051407, 89.00002289, -1.32475007, -153.54887390, -0.17105837, 0.15232046, -0.68415970, -0.69243264, 0.00000000, 0.00000000, 0.00000000, 0.00000000, 0.00000000, 0.00000000, 0.00000000
3, 1.8200, 91, -0.11681397, -1.02737308, 0.19712825, -6.84027433, -18.54156876, -3.89610696, -0.12377454, -39.53392410, 11.30822372, 24.00961304, 5.93387938, -70.34790802, 0.79225713, -0.19895224, 0.07827289, 0.57150698, 0.00000000, 0.00000000, 0.00000000, 0.00000000, 0.00000000, 0.00000000, 0.00000000
1, 1.8400, 92, -0.03037020, -1.01893759, 0.01585576, -4.47537899, -13.01082039, -1.20748746, -33.89389801, -67.10645294, 8.42277527, 88.91335297, -1.30087209, -153.80880737, -0.16945958, 0.15078524, -0.68394721, -0.69337118, 0.00000000, 0.00000000, 0.00000000, 0.00000000, 0.00000000, 0.00000000, 0.00000000
3, 1.8400, 92, -0.13249648, -1.01450706, 0.20257525, -8.88119793, -19.33973503, -6.50279427, 0.17320374, -39.48228455, 12.23449612, 23.84471512, 6.12739086, -70.73265076, 0.79034632, -0.19849086, 0.07675799, 0.57451051, 0.00000000, 0.00000000, 0.00000000, 0.00000000, 0.00000000, 0.00000000, 0.00000000
1, 1.8600, 93, -0.04547076, -0.99155164, 0.06427556, -5.09448147, -12.96953773, -2.95102024, -33.86417389, -66.90477753, 9.23968601, 88.80648041, -1.24450147, -154.06452942, -0.16771638, 0.14944519, -0.68355960, -0.69446653, 0.00000000, 0.00000000, 0.00000000, 0.00000000, 0.00000000, 0.00000000, 0.00000000
3, 1.8600, 93, -0.11736979, -0.98129320, 0.20959516, -9.69624233, -18.18425560, -7.69795799, 0.49987867, -39.35317993, 12.53223038, 23.67030907, 6.32795095, -71.08282471, 0.78860372, -0.19803336, 0.07508291, 0.57727766, 0.00000000, 0.00000000, 0.00000000, 0.00000000, 0.00000000, 0.00000000, 0.00000000
1, 1.8800, 94, -0.04026994, -0.98961949, 0.08714516, -6.83498526, -12.67686272, -5.26230145, -33.80472565, -66.90477753, 8.77288151, 88.66765594, -1.14840794, -154.31935120, -0.16578081, 0.14830948, -0.68292058, -0.69580209, 0.00000000, 0.00000000, 0.00000000, 0.00000000, 0.00000000, 0.00000000, 0.00000000
3, 1.8800, 94, -0.10759636, -0.96935880, 0.19720916, -9.12670326, -16.70205307, -7.69527292, 0.76715833, -39.76631165, 11.73828220, 23.50065041, 6.53275347, -71.41646576, 0.78691983, -0.19765170, 0.07337049, 0.57992041, 0.00000000, 0.00000000, 0.00000000, 0.00000000, 0.00000000, 0.00000000, 0.00000000
3, 1.9000, 95, -0.09016242, -0.96966171, 0.18996775, -8.17551136, -19.83288956, -6.35720778, 1.03443992, -39.30154037, 11.87060642, 23.35284233, 6.70753431, -71.81067657, 0.78492361, -0.19724561, 0.07208015, 0.58291829, 0.00000000, 0.00000000, 0.00000000, 0.00000000, 0.00000000, 0.00000000, 0.00000000
1, 1.9000, 95, -0.04375502, -0.98337966, 0.08882926, -8.07731247, -14.35823631, -7.18432760, -34.36945724, -67.10645294, 8.68535709, 88.49176025, -1.01518357, -154.60243225, -0.16349672, 0.14718409, -0.68203980, -0.69744349, 0.00000000, 0.00000000, 0.00000000, 0.00000000, 0.00000000, 0.00000000, 0.00000000
3, 1.9200, 96, -0.07130061, -0.97055644, 0.17825505, -7.46010876, -23.21950340, -4.82109261, 1.09383523, -39.43064117, 12.00293064, 23.21130753, 6.86973095, -72.27799988, 0.78254855, -0.19678596, 0.07103227, 0.58638513, 0.00000000, 0.00000000, 0.00000000, 0.00000000, 0.00000000, 0.00000000, 0.00000000
1, 1.9200, 96, -0.03079420, -0.98236954, 0.05795234, -8.74323368, -13.81019306, -9.11648750, -34.19112396, -66.53025055, 8.33524990, 88.30104828, -0.84856451, -154.87165833, -0.16111307, 0.14633177, -0.68100250, -0.69918895, 0.00000000, 0.00000000, 0.00000000, 0.00000000, 0.00000000, 0.00000000, 0.00000000
3, 1.9400, 97, -0.03351426, -0.95984143, 0.16042319, -7.13623095, -23.71823883, -5.25204849, 0.94534606, -39.94705582, 12.59839058, 23.07459831, 7.04347134, -72.75093079, 0.78010362, -0.19642487, 0.06993555, 0.58988529, 0.00000000, 0.00000000, 0.00000000, 0.00000000, 0.00000000, 0.00000000, 0.00000000
1, 1.9400, 97, -0.02173984, -0.97649467, 0.04286100, -8.68159103, -10.85832596, -9.81957150, -33.29944611, -67.04882813, 9.18134117, 88.10607910, -0.67079479, -155.08062744, -0.15903275, 0.14590770, -0.67984354, -0.70087963, 0.00000000, 0.00000000, 0.00000000, 0.00000000, 0.00000000, 0.00000000, 0.00000000
1, 1.9600, 98, -0.00934560, -0.98963231, 0.03478103, -9.29307461, -8.17808247, -9.47970581, -33.71556091, -67.76908112, 9.21051407, 87.89851379, -0.50340176, -155.23715210, -0.15734854, 0.14572071, -0.67855078, -0.70254958, 0.00000000, 0.00000000, 0.00000000, 0.00000000, 0.00000000, 0.00000000, 0.00000000
3, 1.9600, 98, 0.00380267, -0.96817875, 0.12533772, -7.47964954, -23.86913681, -7.87225819, 1.50960398, -39.68884659, 12.00293064, 22.93333054, 7.26997232, -73.22177887, 0.77758354, -0.19631033, 0.06844430, 0.59341514, 0.00000000, 0.00000000, 0.00000000, 0.00000000, 0.00000000, 0.00000000, 0.00000000
1, 1.9800, 99, 0.00487342, -1.01561368, 0.00118909, -9.50013065, -6.80918837, -8.85541916, -33.18055344, -67.53859711, 8.36443043, 87.68858337, -0.34813961, -155.36978149, -0.15588440, 0.14560370, -0.67722535, -0.70417714, 0.00000000, 0.00000000, 0.00000000, 0.00000000, 0.00000000, 0.00000000, 0.00000000
3, 1.9800, 99, 0.00847257, -1.00706327, 0.09069342, -7.04101849, -23.51743889, -10.78769112, 1.53930068, -40.54092789, 11.63903618, 22.80147362, 7.54934645, -73.67652130, 0.77503562, -0.19655000, 0.06660903, 0.59686780, 0.00000000, 0.00000000, 0.00000000, 0.00000000, 0.00000000, 0.00000000, 0.00000000
3, 2.0000, 100, -0.00442727, -1.02139497, 0.06528503, -6.08229351, -22.83226204, -11.91302490, 1.30171967, -39.63721085, 12.10217190, 22.68327713, 7.84343433, -74.11090088, 0.77253139, -0.19698472, 0.06471086, 0.60017061, 0.00000000, 0.00000000, 0.00000000, 0.00000000, 0.00000000, 0.00000000, 0.00000000
1, 2.0000, 100, -0.00606154, -1.01919389, -0.01721404, -8.11089230, -7.41180468, -8.54064846, -32.88332748, -67.74027252, 9.15216160, 87.50768280, -0.19609433, -155.51617432, -0.15431663, 0.14543056, -0.67609698, -0.70564097, 0.00000000, 0.00000000, 0.00000000, 0.00000000, 0.00000000, 0.00000000, 0.00000000
1, 2.0200, 101, -0.01444473, -1.01029396, -0.02285547, -7.33136129, -7.52062464, -9.01959133, -33.12110519, -68.20123291, 9.06463623, 87.33560181, -0.03516183, -155.66136169, -0.15269178, 0.14533661, -0.67500681, -0.70705616, 0.00000000, 0.00000000, 0.00000000, 0.00000000, 0.00000000, 0.00000000, 0.00000000
1, 2.0400, 102, -0.01431164, -1.00902724, -0.01813479, -6.72295380, -6.10881615, -10.63440704, -33.12110519, -67.65384674, 8.88958645, 87.17623138, 0.16256304, -155.77902222, -0.15100342, 0.14565383, -0.67390859, -0.70839971, 0.00000000, 0.00000000, 0.00000000, 0.00000000, 0.00000000, 0.00000000, 0.00000000
3, 2.0200, 101, -0.03225370, -1.01861560, 0.06688471, -5.01819706, -20.42177010, -12.26631355, 2.78660917, -39.97287750, 12.73071480, 22.58993721, 8.13831997, -74.49155426, 0.77024919, -0.19763663, 0.06284867, 0.60308039, 0.00000000, 0.00000000, 0.00000000, 0.00000000, 0.00000000, 0.00000000, 0.00000000
3, 2.0400, 102, -0.05515357, -1.01578617, 0.08346909, -5.38024187, -14.26088905, -11.90908718, 2.16295576, -40.07615662, 12.63147259, 22.48740578, 8.41163063, -74.75299072, 0.76863205, -0.19819443, 0.06088372, 0.60515869, 0.00000000, 0.00000000, 0.00000000, 0.00000000, 0.00000000, 0.00000000, 0.00000000
1, 2.0600, 103, -0.00759951, -0.99981338, -0.01280508, -6.23913145, -4.08782148, -12.33577156, -32.73471451, -67.88431549, 8.56865215, 87.02139282, 0.39463538, -155.85815430, -0.14934598, 0.14642048, -0.67274058, -0.70970207, 0.00000000, 0.00000000, 0.00000000, 0.00000000, 0.00000000, 0.00000000, 0.00000000
3, 2.0600, 103, -0.04446068, -0.99716514, 0.09419480, -6.18349695, -9.44936562, -11.67591858, 2.87570095, -40.23108292, 12.26757813, 22.36775970, 8.65908146, -74.91560364, 0.76759970, -0.19856612, 0.05883601, 0.60654801, 0.00000000, 0.00000000, 0.00000000, 0.00000000, 0.00000000, 0.00000000, 0.00000000
3, 2.0800, 104, -0.01526363, -0.97863871, 0.08874522, -5.60778236, -6.99188995, -11.28966045, 2.96479487, -40.30854416, 12.79687881, 22.26309395, 8.90297699, -75.04075623, 0.76674145, -0.19904438, 0.05682739, 0.60766727, 0.00000000, 0.00000000, 0.00000000, 0.00000000, 0.00000000, 0.00000000, 0.00000000
1, 2.0800, 104, -0.00806671, -0.98722684, -0.00345097, -6.35692644, -3.17594290, -13.95509148, -32.67527008, -68.31647491, 8.42277527, 86.85873413, 0.65432268, -155.92051697, -0.14764167, 0.14745079, -0.67146170, -0.71105516, 0.00000000, 0.00000000, 0.00000000, 0.00000000, 0.00000000, 0.00000000, 0.00000000
1, 2.1000, 105, -0.02123345, -1.00229216, 0.01473850, -7.17186260, -2.36985445, -14.88851166, -32.43748856, -68.57575989, 7.95597076, 86.67708588, 0.93344676, -155.96607971, -0.14595446, 0.14868033, -0.67001200, -0.71251345, 0.00000000, 0.00000000, 0.00000000, 0.00000000, 0.00000000, 0.00000000, 0.00000000
3, 2.1000, 105, 0.02246349, -0.99888057, 0.08401477, -5.07159328, -6.25051785, -10.69485188, 2.93509817, -40.79913330, 12.13525391, 22.16296196, 9.13433456, -75.15320587, 0.76595902, -0.19949929, 0.05490699, 0.60868061, 0.00000000, 0.00000000, 0.00000000, 0.00000000, 0.00000000, 0.00000000, 0.00000000
1, 2.1200, 106, 0.02160105, -1.00971639, -0.01456635, -7.63234282, -0.97043180, -15.73544788, -32.02137375, -68.17241669, 8.39360237, 86.48586273, 1.22935450, -155.98565674, -0.14434639, 0.15015863, -0.66843981, -0.71400619, 0.00000000, 0.00000000, 0.00000000, 0.00000000, 0.00000000, 0.00000000, 0.00000000
3, 2.1200, 106, 0.04584210, -1.00928080, 0.07255937, -5.39188719, -6.55579567, -10.21824837, 2.69751525, -40.61839294, 11.60595417, 22.06078911, 9.35580254, -75.27391815, 0.76514882, -0.19988993, 0.05305814, 0.60973454, 0.00000000, 0.00000000, 0.00000000, 0.00000000, 0.00000000, 0.00000000, 0.00000000
1, 2.1400, 107, 0.04610172, -1.00997388, -0.03121470, -6.57490301, -1.59150660, -15.89208889, -32.25915527, -67.91313171, 8.01432323, 86.31766510, 1.52750885, -156.02116394, -0.14259955, 0.15159181, -0.66702235, -0.71537864, 0.00000000, 0.00000000, 0.00000000, 0.00000000, 0.00000000, 0.00000000, 0.00000000
3, 2.1400, 107, 0.05858865, -1.00552964, 0.05885251, -4.89546299, -6.06947708, -9.60472107, 4.00421667, -40.72167206, 11.87060642, 21.96637344, 9.56459045, -75.38552094, 0.76439077, -0.20027541, 0.05132176, 0.61070669, 0.00000000, 0.00000000, 0.00000000, 0.00000000, 0.00000000, 0.00000000, 0.00000000
1, 2.1600, 108, 0.03750394, -1.00787878, -0.02435581, -5.33174133, -2.30603743, -15.06506348, -31.81331635, -67.76908112, 8.13102055, 86.17514801, 1.81208694, -156.06768799, -0.14083228, 0.15291280, -0.66579336, -0.71659142, 0.00000000, 0.00000000, 0.00000000, 0.00000000, 0.00000000, 0.00000000, 0.00000000
3, 2.1600, 108, 0.07924733, -0.99743217, 0.05802438, -5.76154709, -4.31658411, -10.14557362, 3.88542628, -40.54092789, 12.49914837, 21.84806633, 9.78811455, -75.46352386, 0.76382804, -0.20059481, 0.04929856, 0.61147213, 0.00000000, 0.00000000, 0.00000000, 0.00000000, 0.00000000, 0.00000000, 0.00000000
1, 2.1800, 109, 0.03028058, -1.00226986, -0.01803244, -4.22604990, 0.67180538, -14.23579884, -31.39719963, -68.34527588, 7.89761829, 86.05618286, 2.08062029, -156.05207825, -0.13951865, 0.15452707, -0.66464633, -0.71756619, 0.00000000, 0.00000000, 0.00000000, 0.00000000, 0.00000000, 0.00000000, 0.00000000
3, 2.1800, 109, 0.09180393, -0.98902440, 0.05716345, -5.88550997, -0.16888230, -11.01120281, 3.76663589, -40.87659454, 12.56530857, 21.74098206, 10.01429272, -75.44814301, 0.76373804, -0.20104364, 0.04715318, 0.61160636, 0.00000000, 0.00000000, 0.00000000, 0.00000000, 0.00000000, 0.00000000, 0.00000000
3, 2.2000, 110, 0.09590312, -0.98688447, 0.06533466, -5.74830294, 7.15226746, -12.94962978, 4.27149677, -40.79913330, 12.23449612, 21.64390182, 10.26995754, -75.28583527, 0.76436543, -0.20176621, 0.04460006, 0.61077559, 0.00000000, 0.00000000, 0.00000000, 0.00000000, 0.00000000, 0.00000000, 0.00000000
1, 2.2000, 110, 0.04815124, -0.99723238, -0.00882670, -4.00494051, 4.92784548, -13.22105408, -30.83247185, -67.79788971, 7.78092146, 85.94980621, 2.33379865, -155.95210266, -0.13880926, 0.15655138, -0.66347986, -0.71834403, 0.00000000, 0.00000000, 0.00000000, 0.00000000, 0.00000000, 0.00000000, 0.00000000
3, 2.2200, 111, 0.10484611, -0.99510860, 0.05931851, -4.66210890, 14.36337566, -14.75239658, 4.50907946, -40.74748993, 11.96984863, 21.58374214, 10.54030418, -74.96757507, 0.76573026, -0.20285979, 0.04186419, 0.60889459, 0.00000000, 0.00000000, 0.00000000, 0.00000000, 0.00000000, 0.00000000, 0.00000000
1, 2.2200, 111, 0.05112436, -1.00053179, -0.00645150, -3.11465120, 8.23721218, -11.94607353, -31.24858665, -68.31647491, 7.92679834, 85.86795807, 2.56548142, -155.78793335, -0.13859791, 0.15884271, -0.66240263, -0.71887577, 0.00000000, 0.00000000, 0.00000000, 0.00000000, 0.00000000, 0.00000000, 0.00000000
1, 2.2400, 112, 0.06420510, -0.99670970, -0.02216427, -2.49347353, 10.33431149, -10.45818043, -31.54581261, -68.20123291, 7.57669163, 85.80500031, 2.76939631, -155.58387756, -0.13877562, 0.16121286, -0.66142070, -0.71921802, 0.00000000, 0.00000000, 0.00000000, 0.00000000, 0.00000000, 0.00000000, 0.00000000
3, 2.2400, 112, 0.11278575, -0.98815340, 0.05864810, -3.74602389, 21.09325600, -16.18729401, 4.92484856, -40.92823792, 11.60595417, 21.55414200, 10.82436180, -74.51225281, 0.76773614, -0.20425954, 0.03894539, 0.60608786, 0.00000000, 0.00000000, 0.00000000, 0.00000000, 0.00000000, 0.00000000, 0.00000000
1, 2.2600, 113, 0.06831277, -1.00564718, -0.03322642, -1.65470600, 11.14029312, -9.31972504, -30.65413475, -69.32482147, 6.99318266, 85.76321411, 2.95421696, -155.36495972, -0.13913034, 0.16357346, -0.66057050, -0.71939778, 0.00000000, 0.00000000, 0.00000000, 0.00000000, 0.00000000, 0.00000000, 0.00000000
3, 2.2600, 113, 0.10971026, -0.99573565, 0.06422171, -2.48127246, 26.20552826, -16.52979279, 4.36059046, -40.85077286, 10.84508705, 21.55538940, 11.10777855, -73.95558929, 0.77020675, -0.20587417, 0.03600056, 0.60257900, 0.00000000, 0.00000000, 0.00000000, 0.00000000, 0.00000000, 0.00000000, 0.00000000
3, 2.2800, 114, 0.11711912, -0.99389499, 0.07446234, -1.99994791, 27.18223572, -16.16453934, 4.47938299, -41.93524170, 10.84508705, 21.57135582, 11.37685680, -73.38298035, 0.77273703, -0.20749632, 0.03318832, 0.59893352, 0.00000000, 0.00000000, 0.00000000, 0.00000000, 0.00000000, 0.00000000, 0.00000000
1, 2.2800, 114, 0.06992669, -1.00448084, -0.02824212, -0.75206989, 10.97208023, -8.42245388, -30.92164040, -69.20957947, 7.43081427, 85.73933411, 3.12440872, -155.14755249, -0.13953666, 0.16585398, -0.65984875, -0.71945930, 0.00000000, 0.00000000, 0.00000000, 0.00000000, 0.00000000, 0.00000000, 0.00000000
1, 2.3000, 115, 0.07173750, -0.99569225, -0.01879355, 0.07625807, 10.57030582, -7.64591217, -31.09997368, -68.57575989, 8.13102055, 85.73534393, 3.28012371, -154.94003296, -0.13993713, 0.16801009, -0.65928102, -0.71940166, 0.00000000, 0.00000000, 0.00000000, 0.00000000, 0.00000000, 0.00000000, 0.00000000
3, 2.3000, 115, 0.12867370, -0.98510432, 0.08180059, -2.08266902, 23.70524216, -14.92341232, 4.71696377, -40.59257126, 11.50671196, 21.58142090, 11.63394070, -72.88801575, 0.77487266, -0.20897454, 0.03055518, 0.59579235, 0.00000000, 0.00000000, 0.00000000, 0.00000000, 0.00000000, 0.00000000, 0.00000000
1, 2.3200, 116, 0.06772047, -0.99667877, -0.00787885, -0.01032487, 9.98089314, -7.08792782, -30.95136070, -68.74861908, 7.48916674, 85.73257446, 3.42407131, -154.74465942, -0.14032812, 0.17002305, -0.65875065, -0.71933842, 0.00000000, 0.00000000, 0.00000000, 0.00000000, 0.00000000, 0.00000000, 0.00000000
3, 2.3200, 116, 0.13417424, -0.98734039, 0.08231267, -1.40336037, 19.63681602, -13.03879929, 4.24179983, -41.05733871, 11.14281750, 21.59955406, 11.85312557, -72.47255707, 0.77662873, -0.21028213, 0.02836198, 0.59314835, 0.00000000, 0.00000000, 0.00000000, 0.00000000, 0.00000000, 0.00000000, 0.00000000
1, 2.3400, 117, 0.07114931, -1.00496924, -0.00559819, -0.19919141, 9.45515728, -6.77098322, -31.01080513, -69.55530548, 8.04349613, 85.72497559, 3.56147885, -154.55943298, -0.14070077, 0.17192967, -0.65820962, -0.71930778, 0.00000000, 0.00000000, 0.00000000, 0.00000000, 0.00000000, 0.00000000, 0.00000000
3, 2.3400, 117, 0.13512859, -0.99642438, 0.08739932, -0.78780258, 14.08242989, -10.70514011, 4.41998577, -41.28972626, 11.17589951, 21.61929893, 12.03673553, -72.17652893, 0.77781385, -0.21138555, 0.02663713, 0.59128034, 0.00000000, 0.00000000, 0.00000000, 0.00000000, 0.00000000, 0.00000000, 0.00000000
3, 2.3600, 118, 0.13999231, -1.00689209, 0.09774616, -0.29605773, 6.52253389, -8.26021004, 4.41998577, -41.21226501, 11.04357529, 21.63559532, 12.19894981, -72.04658508, 0.77817965, -0.21231678, 0.02534661, 0.59052157, 0.00000000, 0.00000000, 0.00000000, 0.00000000, 0.00000000, 0.00000000, 0.00000000
1, 2.3600, 118, 0.07966665, -1.01365948, -0.00914891, 0.20955579, 7.74912071, -6.18070602, -31.01080513, -68.57575989, 7.89761829, 85.72499847, 3.68748164, -154.41015625, -0.14090297, 0.17356734, -0.65778375, -0.71926439, 0.00000000, 0.00000000, 0.00000000, 0.00000000, 0.00000000, 0.00000000, 0.00000000
3, 2.3800, 119, 0.13629834, -1.01461828, 0.09401615, 0.52556354, 0.20837551, -5.26904583, 4.86545324, -41.10897827, 10.84508705, 21.65223694, 12.29896832, -72.03511047, 0.77803808, -0.21291943, 0.02471136, 0.59051794, 0.00000000, 0.00000000, 0.00000000, 0.00000000, 0.00000000, 0.00000000, 0.00000000
1, 2.3800, 119, 0.06985841, -1.01961720, -0.00860270, 0.63125861, 4.96185541, -5.82974052, -30.17857361, -69.35363770, 7.95597076, 85.73231506, 3.80564833, -154.31787109, -0.14078200, 0.17483753, -0.65749949, -0.71924043, 0.00000000, 0.00000000, 0.00000000, 0.00000000, 0.00000000, 0.00000000, 0.00000000
3, 2.4000, 120, 0.12991586, -1.01116657, 0.08216646, 1.12152803, -3.49335217, -2.47075200, 5.07333755, -41.31554794, 11.14281750, 21.66342926, 12.36990547, -72.11241913, 0.77749783, -0.21332434, 0.02441669, 0.59109533, 0.00000000, 0.00000000, 0.00000000, 0.00000000, 0.00000000, 0.00000000, 0.00000000
1, 2.4000, 120, 0.07231653, -1.01382947, -0.00612585, 0.80328131, 1.92690361, -5.72878599, -30.74330330, -68.43170929, 8.10184860, 85.73743439, 3.92220759, -154.28515625, -0.14029957, 0.17575264, -0.65729308, -0.71930027, 0.00000000, 0.00000000, 0.00000000, 0.00000000, 0.00000000, 0.00000000, 0.00000000
3, 2.4200, 121, 0.13369791, -1.00116456, 0.08631079, 1.72979903, -5.08647585, -0.37671828, 5.40001345, -40.92823792, 11.20898151, 21.69069672, 12.38399315, -72.21434784, 0.77689689, -0.21355616, 0.02464879, 0.59179175, 0.00000000, 0.00000000, 0.00000000, 0.00000000, 0.00000000, 0.00000000, 0.00000000
1, 2.4200, 121, 0.07922709, -1.00973272, -0.01125923, 0.66744679, -0.33783934, -5.37765694, -29.85162735, -68.34527588, 7.89761829, 85.73867035, 4.03159332, -154.29704285, -0.13958494, 0.17636269, -0.65714163, -0.71942842, 0.00000000, 0.00000000, 0.00000000, 0.00000000, 0.00000000, 0.00000000, 0.00000000
3, 2.4400, 122, 0.15040219, -0.99470234, 0.09237462, 2.88641047, -8.68288326, 1.54092765, 5.25152445, -41.28972626, 11.30822372, 21.73248482, 12.36674309, -72.38990784, 0.77594090, -0.21371676, 0.02531261, 0.59295881, 0.00000000, 0.00000000, 0.00000000, 0.00000000, 0.00000000, 0.00000000, 0.00000000
1, 2.4400, 122, 0.08335252, -1.00773633, -0.00709088, 0.71017599, -1.88227654, -4.73812580, -30.20829773, -69.09434509, 7.89761829, 85.73760986, 4.12552834, -154.33920288, -0.13877372, 0.17670065, -0.65704709, -0.71958870, 0.00000000, 0.00000000, 0.00000000, 0.00000000, 0.00000000, 0.00000000, 0.00000000
1, 2.4600, 123, 0.09034875, -0.99991888, -0.00967006, 0.71329260, -3.24164462, -3.85039735, -30.11912918, -68.92147827, 8.07267570, 85.73760986, 4.20043230, -154.40713501, -0.13790990, 0.17677441, -0.65702993, -0.71975231, 0.00000000, 0.00000000, 0.00000000, 0.00000000, 0.00000000, 0.00000000, 0.00000000
3, 2.4600, 123, 0.15363114, -0.99167359, 0.08835301, 3.34806228, -10.14317417, 2.50248742, 5.37031555, -41.78031540, 11.83752441, 21.77658653, 12.35060692, -72.60420227, 0.77477610, -0.21388818, 0.02605348, 0.59438646, 0.00000000, 0.00000000, 0.00000000, 0.00000000, 0.00000000, 0.00000000, 0.00000000
1, 2.4800, 124, 0.09241317, -0.99583125, -0.01396155, 1.06001914, -4.10034847, -2.55171824, -30.02996063, -68.86386108, 7.48916674, 85.74569702, 4.25451708, -154.49006653, -0.13706067, 0.17664301, -0.65712065, -0.71986395, 0.00000000, 0.00000000, 0.00000000, 0.00000000, 0.00000000, 0.00000000, 0.00000000
3, 2.4800, 124, 0.14643620, -0.98678088, 0.08335651, 3.44609857, -11.70686436, 2.67017913, 5.19212914, -41.34136963, 11.60595417, 21.82215309, 12.31957150, -72.84014893, 0.77351880, -0.21398912, 0.02694682, 0.59594584, 0.00000000, 0.00000000, 0.00000000, 0.00000000, 0.00000000, 0.00000000, 0.00000000
3, 2.5000, 125, 0.13577226, -0.98610163, 0.08575433, 2.93789744, -12.94292355, 1.61348379, 4.92484856, -40.64421082, 11.17589951, 21.85209274, 12.32253265, -73.10437012, 0.77208161, -0.21414275, 0.02757573, 0.59772283, 0.00000000, 0.00000000, 0.00000000, 0.00000000, 0.00000000, 0.00000000, 0.00000000
1, 2.5000, 125, 0.09452842, -0.99358767, -0.01765307, 1.74367356, -3.87380719, -0.99873340, -30.32718658, -69.00791168, 7.54751921, 85.77291870, 4.27484226, -154.56719971, -0.13641545, 0.17635873, -0.65737742, -0.71982181, 0.00000000, 0.00000000, 0.00000000, 0.00000000, 0.00000000, 0.00000000, 0.00000000
1, 2.5200, 126, 0.09205850, -0.99123758, -0.02362171, 2.32234144, -2.61913514, 0.24681057, -30.17857361, -68.97910309, 8.13102055, 85.80687714, 4.27311516, -154.61578369, -0.13606824, 0.17610973, -0.65766823, -0.71968281, 0.00000000, 0.00000000, 0.00000000, 0.00000000, 0.00000000, 0.00000000, 0.00000000
3, 2.5200, 126, 0.11434697, -0.98454696, 0.08319161, 1.91364491, -11.16522026, 0.11254123, 5.40001345, -40.74748993, 11.47362995, 21.87103081, 12.34308720, -73.31984711, 0.77088553, -0.21431954, 0.02793476, 0.59918487, 0.00000000, 0.00000000, 0.00000000, 0.00000000, 0.00000000, 0.00000000, 0.00000000
3, 2.5400, 127, 0.08991488, -0.99723238, 0.08256932, 1.67276180, -5.87025404, -1.33593929, 5.13273287, -40.72167206, 10.97741604, 21.89631271, 12.38089275, -73.42298889, 0.77023339, -0.21465135, 0.02799780, 0.59990132, 0.00000000, 0.00000000, 0.00000000, 0.00000000, 0.00000000, 0.00000000, 0.00000000
1, 2.5400, 127, 0.07389936, -0.99567211, -0.01516992, 3.05117154, -0.19552791, 0.82218975, -30.29746437, -68.92147827, 8.07267570, 85.87086487, 4.26379728, -154.61630249, -0.13602108, 0.17612511, -0.65808588, -0.71930605, 0.00000000, 0.00000000, 0.00000000, 0.00000000, 0.00000000, 0.00000000, 0.00000000
1, 2.5600, 128, 0.07040478, -0.99936539, -0.01079059, 3.40987492, 3.23760891, 0.57906133, -30.41635513, -68.69100189, 7.75174141, 85.94679260, 4.26262760, -154.54743958, -0.13634315, 0.17660367, -0.65845823, -0.71878684, 0.00000000, 0.00000000, 0.00000000, 0.00000000, 0.00000000, 0.00000000, 0.00000000
3, 2.5600, 128, 0.06952163, -1.00030279, 0.07914093, 1.34464538, 0.82136196, -2.46102643, 5.69699049, -41.08316040, 11.10974026, 21.90278244, 12.39911652, -73.37090302, 0.77046239, -0.21479766, 0.02780765, 0.59956354, 0.00000000, 0.00000000, 0.00000000, 0.00000000, 0.00000000, 0.00000000, 0.00000000
1, 2.5800, 129, 0.07131978, -1.00247788, -0.01180952, 4.01995707, 6.05651426, 0.13485864, -30.11912918, -69.12314606, 7.72256899, 86.03567505, 4.26860094, -154.42308044, -0.13695067, 0.17746140, -0.65881366, -0.71813411, 0.00000000, 0.00000000, 0.00000000, 0.00000000, 0.00000000, 0.00000000, 0.00000000
3, 2.5800, 129, 0.05714348, -1.00016177, 0.09268463, 2.24801731, 7.60459423, -3.22458434, 5.01394224, -41.00569916, 11.37438774, 21.96878242, 12.44553280, -73.19662476, 0.77116919, -0.21551293, 0.02750326, 0.59841120, 0.00000000, 0.00000000, 0.00000000, 0.00000000, 0.00000000, 0.00000000, 0.00000000
3, 2.6000, 130, 0.06347863, -1.00021207, 0.10878818, 3.39245272, 13.22142887, -3.54034138, 5.31091976, -40.56674957, 11.20898151, 22.07168007, 12.47844410, -72.90360260, 0.77244592, -0.21643803, 0.02725868, 0.59643859, 0.00000000, 0.00000000, 0.00000000, 0.00000000, 0.00000000, 0.00000000, 0.00000000
1, 2.6000, 130, 0.07237519, -1.00549483, -0.00462526, 4.04385281, 8.23885632, -0.49621275, -29.73273468, -68.60457611, 7.78092146, 86.12848663, 4.29127502, -154.25637817, -0.13771781, 0.17867099, -0.65909898, -0.71742535, 0.00000000, 0.00000000, 0.00000000, 0.00000000, 0.00000000, 0.00000000, 0.00000000
1, 2.6200, 131, 0.07748131, -1.00671220, 0.00541651, 3.68086171, 9.17509270, -0.85587204, -29.55439949, -68.92147827, 8.16020012, 86.21846771, 4.31888103, -154.07446289, -0.13855354, 0.17999592, -0.65933204, -0.71671867, 0.00000000, 0.00000000, 0.00000000, 0.00000000, 0.00000000, 0.00000000, 0.00000000
3, 2.6200, 131, 0.08027763, -0.99387723, 0.12241982, 4.29782915, 17.06231880, -3.11960626, 5.01394224, -40.56674957, 11.87060642, 22.19627380, 12.49854946, -72.53956604, 0.77406603, -0.21746361, 0.02707661, 0.59396839, 0.00000000, 0.00000000, 0.00000000, 0.00000000, 0.00000000, 0.00000000, 0.00000000
3, 2.6400, 132, 0.09598080, -0.99175221, 0.13176796, 4.90235615, 17.25477219, -2.44777513, 5.54850245, -40.77331161, 10.74584579, 22.33161545, 12.50344276, -72.17568970, 0.77568215, -0.21848859, 0.02705037, 0.59147984, 0.00000000, 0.00000000, 0.00000000, 0.00000000, 0.00000000, 0.00000000, 0.00000000
1, 2.6400, 132, 0.07771339, -1.00594032, 0.00872215, 3.08267665, 8.91855240, -1.20031989, -30.11912918, -68.83504486, 7.81009388, 86.29096222, 4.35286045, -153.89691162, -0.13935015, 0.18131453, -0.65944916, -0.71612388, 0.00000000, 0.00000000, 0.00000000, 0.00000000, 0.00000000, 0.00000000, 0.00000000
1, 2.6600, 133, 0.08217056, -1.00297904, 0.00695107, 2.49085236, 8.22354031, -1.35913277, -30.11912918, -68.89266968, 8.07267570, 86.34954834, 4.38766670, -153.73345947, -0.14007407, 0.18254046, -0.65949780, -0.71562618, 0.00000000, 0.00000000, 0.00000000, 0.00000000, 0.00000000, 0.00000000, 0.00000000
3, 2.6600, 133, 0.10631339, -0.98996890, 0.13355309, 4.77059650, 15.00834846, -1.49721408, 5.04363966, -40.69585419, 11.30822372, 22.46335220, 12.49571419, -71.86238098, 0.77705806, -0.21941775, 0.02718450, 0.58931965, 0.00000000, 0.00000000, 0.00000000, 0.00000000, 0.00000000, 0.00000000, 0.00000000
1, 2.6800, 134, 0.08622864, -1.00164795, 0.00389080, 2.01809621, 7.01675272, -1.39885318, -29.94079208, -68.97910309, 7.83926630, 86.39844513, 4.42314816, -153.59460449, -0.14065474, 0.18361735, -0.65952194, -0.71521449, 0.00000000, 0.00000000, 0.00000000, 0.00000000, 0.00000000, 0.00000000, 0.00000000
3, 2.6800, 134, 0.10278856, -0.98944807, 0.13380441, 4.50427580, 12.47732639, -0.71900088, 5.60789776, -40.61839294, 10.94433403, 22.57886887, 12.47601604, -71.60007477, 0.77821779, -0.22016890, 0.02741248, 0.58749574, 0.00000000, 0.00000000, 0.00000000, 0.00000000, 0.00000000, 0.00000000, 0.00000000
1, 2.7000, 135, 0.08523600, -0.99817818, 0.00423040, 1.80915701, 6.64706945, -1.37480831, -30.20829773, -69.12314606, 7.66421652, 86.44165039, 4.45585585, -153.46102905, -0.14122680, 0.18463983, -0.65952194, -0.71483850, 0.00000000, 0.00000000, 0.00000000, 0.00000000, 0.00000000, 0.00000000, 0.00000000
3, 2.7000, 135, 0.09717678, -0.98553061, 0.12930226, 4.14054680, 12.10834980, -0.44411120, 4.47938299, -41.49628830, 11.90368843, 22.69033051, 12.45240211, -71.34282684, 0.77936149, -0.22087450, 0.02765361, 0.58570081, 0.00000000, 0.00000000, 0.00000000, 0.00000000, 0.00000000, 0.00000000, 0.00000000
3, 2.7200, 136, 0.09380384, -0.98947895, 0.12088297, 4.35171652, 14.09982395, -1.06549108, 4.15270615, -40.59257126, 11.17589951, 22.80610466, 12.43650055, -71.04136658, 0.78070384, -0.22165920, 0.02777390, 0.58360726, 0.00000000, 0.00000000, 0.00000000, 0.00000000, 0.00000000, 0.00000000, 0.00000000
1, 2.7200, 136, 0.08348684, -0.99935156, 0.00374589, 1.74140847, 7.60182333, -1.20357609, -30.11912918, -68.43170929, 8.42277527, 86.48636627, 4.48418236, -153.30712891, -0.14194807, 0.18575448, -0.65950423, -0.71442306, 0.00000000, 0.00000000, 0.00000000, 0.00000000, 0.00000000, 0.00000000, 0.00000000
1, 2.7400, 137, 0.08203557, -1.00066710, 0.00143245, 1.83655238, 9.19925404, -1.30626869, -29.91107178, -69.32482147, 8.39360237, 86.53614807, 4.51646996, -153.12136841, -0.14283526, 0.18708314, -0.65945745, -0.71394253, 0.00000000, 0.00000000, 0.00000000, 0.00000000, 0.00000000, 0.00000000, 0.00000000
3, 2.7400, 137, 0.09625809, -0.99065435, 0.11593691, 4.11827278, 16.93837357, -2.05305862, 4.59817362, -41.80613708, 11.80444241, 22.92488861, 12.43334389, -70.68110657, 0.78230995, -0.22254141, 0.02770155, 0.58111882, 0.00000000, 0.00000000, 0.00000000, 0.00000000, 0.00000000, 0.00000000, 0.00000000
1, 2.7600, 138, 0.08280542, -1.00103474, 0.00269683, 2.12173891, 10.53800583, -1.26770937, -30.14885330, -69.15196228, 8.80205441, 86.59436035, 4.54856777, -152.90766907, -0.14388233, 0.18858215, -0.65941477, -0.71337712, 0.00000000, 0.00000000, 0.00000000, 0.00000000, 0.00000000, 0.00000000, 0.00000000
3, 2.7600, 138, 0.09952991, -0.99035931, 0.11328623, 3.98576856, 18.48280716, -2.79641795, 4.68726730, -40.51510620, 11.30822372, 23.04241943, 12.44011974, -70.29071808, 0.78404462, -0.22347090, 0.02748867, 0.57842833, 0.00000000, 0.00000000, 0.00000000, 0.00000000, 0.00000000, 0.00000000, 0.00000000
3, 2.7800, 139, 0.10536228, -0.98976725, 0.11756924, 3.90733385, 19.30634117, -3.01188111, 4.53877831, -40.41182327, 11.14281750, 23.16207123, 12.44797325, -69.88269043, 0.78585154, -0.22442503, 0.02723824, 0.57561177, 0.00000000, 0.00000000, 0.00000000, 0.00000000, 0.00000000, 0.00000000, 0.00000000
1, 2.7800, 139, 0.08135540, -1.00006652, 0.00502134, 2.54571009, 12.05181217, -1.31827962, -30.17857361, -68.46051788, 8.10184860, 86.66300201, 4.58169079, -152.66456604, -0.14508699, 0.19026992, -0.65938288, -0.71271414, 0.00000000, 0.00000000, 0.00000000, 0.00000000, 0.00000000, 0.00000000, 0.00000000
3, 2.8000, 140, 0.11322489, -0.98925990, 0.12388749, 3.86453652, 19.88476181, -3.10310674, 4.36059046, -40.74748993, 11.57287598, 23.28405762, 12.45831680, -69.46598816, 0.78768182, -0.22540972, 0.02695832, 0.57273126, 0.00000000, 0.00000000, 0.00000000, 0.00000000, 0.00000000, 0.00000000, 0.00000000
1, 2.8000, 140, 0.08674414, -1.00161874, 0.00962097, 2.54089379, 13.07465553, -1.25908577, -30.14885330, -68.83504486, 8.16020012, 86.73256683, 4.61381817, -152.40327454, -0.14640644, 0.19205782, -0.65932357, -0.71201926, 0.00000000, 0.00000000, 0.00000000, 0.00000000, 0.00000000, 0.00000000, 0.00000000
1, 2.8200, 141, 0.09098862, -1.00383413, 0.01301458, 2.50497460, 12.57779408, -0.98095846, -30.32718658, -68.25884247, 7.60586405, 86.80311584, 4.64131212, -152.15309143, -0.14767997, 0.19375543, -0.65929234, -0.71132487, 0.00000000, 0.00000000, 0.00000000, 0.00000000, 0.00000000, 0.00000000, 0.00000000
3, 2.8200, 141, 0.12290888, -0.98953545, 0.13117442, 3.92523360, 19.36015320, -2.80549240, 4.59817362, -40.41182327, 10.97741604, 23.40395927, 12.45919037, -69.06147003, 0.78946084, -0.22633371, 0.02675257, 0.56992018, 0.00000000, 0.00000000, 0.00000000, 0.00000000, 0.00000000, 0.00000000, 0.00000000
1, 2.8400, 142, 0.09292160, -1.00458300, 0.01303602, 2.30901217, 11.20941067, -0.60897505, -30.14885330, -68.63337708, 7.75174141, 86.86676025, 4.65880108, -151.93038940, -0.14885096, 0.19522554, -0.65927839, -0.71069151, 0.00000000, 0.00000000, 0.00000000, 0.00000000, 0.00000000, 0.00000000, 0.00000000
3, 2.8400, 142, 0.13108556, -0.99032968, 0.13554305, 4.31417322, 17.23297119, -1.89025843, 4.18240452, -40.61839294, 11.63903618, 23.52624702, 12.44589615, -68.70210266, 0.79102558, -0.22719917, 0.02674285, 0.56740105, 0.00000000, 0.00000000, 0.00000000, 0.00000000, 0.00000000, 0.00000000, 0.00000000
1, 2.8600, 143, 0.09588598, -1.00591218, 0.01257922, 2.15172148, 9.35381794, -0.16180323, -29.85162735, -68.77743530, 8.10184860, 86.92494202, 4.66682053, -151.74516296, -0.14985265, 0.19641578, -0.65930831, -0.71012503, 0.00000000, 0.00000000, 0.00000000, 0.00000000, 0.00000000, 0.00000000, 0.00000000
3, 2.8600, 143, 0.13323085, -0.99131620, 0.13782686, 4.55489874, 14.11468697, -0.50434667, 4.86545324, -42.45165253, 11.04357529, 23.64864922, 12.42158890, -68.41469574, 0.79224592, -0.22799972, 0.02695020, 0.56536394, 0.00000000, 0.00000000, 0.00000000, 0.00000000, 0.00000000, 0.00000000, 0.00000000
3, 2.8800, 144, 0.12912928, -0.99458069, 0.13788898, 4.48346758, 10.92714977, 0.50375885, 4.80605793, -40.72167206, 11.40746975, 23.75801468, 12.37620163, -68.19003296, 0.79321492, -0.22860049, 0.02736525, 0.56374037, 0.00000000, 0.00000000, 0.00000000, 0.00000000, 0.00000000, 0.00000000, 0.00000000
1, 2.8800, 144, 0.09548362, -1.00714529, 0.01185078, 2.08841205, 7.24953222, 0.40707988, -29.79218102, -68.23004150, 7.81009388, 86.97949982, 4.66636896, -151.60243225, -0.15064585, 0.19730590, -0.65940183, -0.70962346, 0.00000000, 0.00000000, 0.00000000, 0.00000000, 0.00000000, 0.00000000, 0.00000000
1, 2.9000, 145, 0.09481165, -1.00741100, 0.01082807, 2.04434943, 5.32552052, 0.75810993, -30.59469032, -68.77743530, 8.01432323, 87.03137970, 4.65548563, -151.49783325, -0.15126789, 0.19791012, -0.65956217, -0.70917374, 0.00000000, 0.00000000, 0.00000000, 0.00000000, 0.00000000, 0.00000000, 0.00000000
3, 2.9000, 145, 0.11964118, -0.99559981, 0.13841899, 4.14691067, 7.20920610, 1.71819699, 4.33089352, -40.33436584, 11.20898151, 23.85416031, 12.32492924, -68.04815674, 0.79381061, -0.22906494, 0.02792065, 0.56268513, 0.00000000, 0.00000000, 0.00000000, 0.00000000, 0.00000000, 0.00000000, 0.00000000
1, 2.9200, 146, 0.08873393, -1.00672364, 0.01298373, 2.25220728, 3.75640464, 1.23832357, -30.17857361, -68.54694366, 8.33524990, 87.08600616, 4.63513756, -151.42416382, -0.15174887, 0.19828291, -0.65980935, -0.70873684, 0.00000000, 0.00000000, 0.00000000, 0.00000000, 0.00000000, 0.00000000, 0.00000000
3, 2.9200, 146, 0.10849250, -0.99624008, 0.13616617, 3.70156121, 4.83456516, 2.44954991, 4.86545324, -40.92823792, 11.10974026, 23.93460655, 12.25864983, -67.95170593, 0.79423982, -0.22934216, 0.02859608, 0.56193215, 0.00000000, 0.00000000, 0.00000000, 0.00000000, 0.00000000, 0.00000000, 0.00000000
3, 2.9400, 147, 0.10225940, -0.99496186, 0.13694057, 3.44505858, 3.68651843, 2.62102675, 4.41998577, -41.47047043, 11.44055176, 24.00785828, 12.19290066, -67.87740326, 0.79457301, -0.22956756, 0.02927631, 0.56133366, 0.00000000, 0.00000000, 0.00000000, 0.00000000, 0.00000000, 0.00000000, 0.00000000
1, 2.9400, 147, 0.08475992, -1.00738168, 0.01514200, 2.29375243, 3.18646908, 1.14260733, -30.23801994, -68.28765869, 7.81009388, 87.14038086, 4.61784697, -151.36090088, -0.15214768, 0.19861457, -0.66006702, -0.70831841, 0.00000000, 0.00000000, 0.00000000, 0.00000000, 0.00000000, 0.00000000, 0.00000000
1, 2.9600, 148, 0.08977140, -1.00619733, 0.01757244, 2.44330359, 2.72332740, 1.26310086, -29.79218102, -68.11479950, 8.36443043, 87.19655609, 4.59839010, -151.30691528, -0.15249841, 0.19888239, -0.66035545, -0.70789880, 0.00000000, 0.00000000, 0.00000000, 0.00000000, 0.00000000, 0.00000000, 0.00000000
3, 2.9600, 148, 0.09547139, -0.99232626, 0.13910224, 3.85398841, 3.23657870, 2.79663014, 3.73693728, -40.41182327, 11.63903618, 24.08931923, 12.12477493, -67.81198883, 0.79484987, -0.22983763, 0.03003111, 0.56079108, 0.00000000, 0.00000000, 0.00000000, 0.00000000, 0.00000000, 0.00000000, 0.00000000
1, 2.9800, 149, 0.08257815, -1.00268400, 0.01971311, 2.45271063, 2.31415391, 1.27610075, -29.73273468, -68.40290070, 7.92679834, 87.25579071, 4.57614326, -151.26098633, -0.15281017, 0.19909129, -0.66068161, -0.70746845, 0.00000000, 0.00000000, 0.00000000, 0.00000000, 0.00000000, 0.00000000, 0.00000000
3, 2.9800, 149, 0.09050760, -0.98858827, 0.14095183, 4.49918556, 3.10621119, 2.70071197, 3.88542628, -40.90241623, 11.87060642, 24.18264771, 12.05739975, -67.74619293, 0.79510283, -0.23019449, 0.03083741, 0.56024212, 0.00000000, 0.00000000, 0.00000000, 0.00000000, 0.00000000, 0.00000000, 0.00000000
1, 3.0000, 150, 0.08072752, -1.00239241, 0.01986443, 2.32386684, 2.74803329, 1.12998235, -30.20829773, -68.05718231, 7.81009388, 87.30919647, 4.55944490, -151.20614624, -0.15315415, 0.19937772, -0.66094595, -0.70706642, 0.00000000, 0.00000000, 0.00000000, 0.00000000, 0.00000000, 0.00000000, 0.00000000
3, 3.0000, 150, 0.08567010, -0.98962528, 0.14173257, 4.48720837, 3.63079190, 2.61829710, 4.86545324, -40.56674957, 11.63903618, 24.27698517, 11.98623276, -67.66694641, 0.79542536, -0.23054574, 0.03164817, 0.55959421, 0.00000000, 0.00000000, 0.00000000, 0.00000000, 0.00000000, 0.00000000, 0.00000000
1, 3.0200, 151, 0.08035439, -1.00380647, 0.01791389, 2.21510530, 3.01138639, 0.98391026, -30.17857361, -68.31647491, 8.04349613, 87.36054993, 4.54227543, -151.14590454, -0.15353753, 0.19969009, -0.66118872, -0.70666796, 0.00000000, 0.00000000, 0.00000000, 0.00000000, 0.00000000, 0.00000000, 0.00000000
3, 3.0200, 151, 0.08293436, -0.99266183, 0.14535850, 3.90498900, 4.49709511, 2.21709061, 4.41998577, -42.19344711, 11.37438774, 24.36019135, 11.92609501, -67.57294464, 0.79582214, -0.23087533, 0.03229534, 0.55885673, 0.00000000, 0.00000000, 0.00000000, 0.00000000, 0.00000000, 0.00000000, 0.00000000
1, 3.0400, 152, 0.08146030, -1.00771976, 0.01813141, 2.41218090, 3.71239018, 0.79097062, -30.50552177, -67.91313171, 8.53948021, 87.41651917, 4.53202438, -151.07046509, -0.15396544, 0.20013863, -0.66142064, -0.70623076, 0.00000000, 0.00000000, 0.00000000, 0.00000000, 0.00000000, 0.00000000, 0.00000000
3, 3.0400, 152, 0.08440728, -0.99282491, 0.14929166, 3.57014084, 5.39372110, 1.59744072, 4.18240452, -40.85077286, 11.27514553, 24.43945122, 11.87547302, -67.45983887, 0.79630226, -0.23122744, 0.03281596, 0.55799609, 0.00000000, 0.00000000, 0.00000000, 0.00000000, 0.00000000, 0.00000000, 0.00000000
1, 3.0600, 153, 0.08754221, -1.00694191, 0.01652576, 2.48008823, 4.21882105, 0.71633804, -30.17857361, -68.37409210, 8.45195484, 87.47446442, 4.52308750, -150.98603821, -0.15443696, 0.20064998, -0.66164613, -0.70577139, 0.00000000, 0.00000000, 0.00000000, 0.00000000, 0.00000000, 0.00000000, 0.00000000
3, 3.0600, 153, 0.09528781, -0.99352032, 0.15229611, 3.19576240, 6.34917784, 0.82904917, 3.91512489, -40.02451706, 11.10974026, 24.51768875, 11.84100151, -67.32857513, 0.79684341, -0.23165238, 0.03317840, 0.55702513, 0.00000000, 0.00000000, 0.00000000, 0.00000000, 0.00000000, 0.00000000, 0.00000000
3, 3.0800, 154, 0.10225967, -0.99120921, 0.15559274, 2.29612207, 7.17561865, 0.05072677, 4.12300920, -40.23108292, 12.30066013, 24.57554054, 11.81695080, -67.17868805, 0.79749644, -0.23198919, 0.03332852, 0.55594051, 0.00000000, 0.00000000, 0.00000000, 0.00000000, 0.00000000, 0.00000000, 0.00000000
1, 3.0800, 154, 0.09030221, -1.00558066, 0.02224212, 2.52421689, 4.15034771, 1.09106517, -29.82190323, -68.48933411, 7.75174141, 87.53697968, 4.51116276, -150.90429688, -0.15490101, 0.20113444, -0.66190934, -0.70528483, 0.00000000, 0.00000000, 0.00000000, 0.00000000, 0.00000000, 0.00000000, 0.00000000
1, 3.1000, 155, 0.08852720, -1.00422156, 0.02418080, 2.53339481, 3.38047075, 1.67359447, -29.94079208, -68.20123291, 7.75174141, 87.59683990, 4.48306561, -150.83805847, -0.15536921, 0.20142864, -0.66221219, -0.70481336, 0.00000000, 0.00000000, 0.00000000, 0.00000000, 0.00000000, 0.00000000, 0.00000000
3, 3.1000, 155, 0.10700520, -0.98874843, 0.15718347, 1.63903975, 7.28205395, -0.62408584, 4.03391552, -40.20526123, 11.47362995, 24.62722206, 11.81778145, -67.03314972, 0.79809564, -0.23239504, 0.03327817, 0.55491304, 0.00000000, 0.00000000, 0.00000000, 0.00000000, 0.00000000, 0.00000000, 0.00000000
1, 3.1200, 156, 0.08480170, -1.00357115, 0.02844431, 2.50148487, 3.07352328, 2.02658248, -30.32718658, -68.46051788, 7.98514318, 87.66050720, 4.44843912, -150.77851868, -0.15582782, 0.20165053, -0.66256177, -0.70432007, 0.00000000, 0.00000000, 0.00000000, 0.00000000, 0.00000000, 0.00000000, 0.00000000
3, 3.1200, 156, 0.10779931, -0.98570853, 0.15973644, 0.94595242, 6.74101543, -0.97457498, 4.00421667, -40.30854416, 11.10974026, 24.65857506, 11.81655979, -66.89395905, 0.79870760, -0.23264834, 0.03315620, 0.55393291, 0.00000000, 0.00000000, 0.00000000, 0.00000000, 0.00000000, 0.00000000, 0.00000000
3, 3.1400, 157, 0.10740414, -0.98678184, 0.16060808, 0.47252369, 5.77887583, -1.13441956, 4.00421667, -40.17943954, 11.17589951, 24.67881775, 11.82158279, -66.77458954, 0.79923427, -0.23284656, 0.03297545, 0.55310011, 0.00000000, 0.00000000, 0.00000000, 0.00000000, 0.00000000, 0.00000000, 0.00000000
1, 3.1400, 157, 0.08642454, -1.00302684, 0.02890578, 2.19078326, 3.05462575, 2.38290238, -30.23801994, -68.31647491, 7.75174141, 87.71447754, 4.40485430, -150.71864319, -0.15635809, 0.20180762, -0.66286701, -0.70387018, 0.00000000, 0.00000000, 0.00000000, 0.00000000, 0.00000000, 0.00000000, 0.00000000
1, 3.1600, 158, 0.08348362, -1.00270128, 0.02815275, 2.15013337, 2.32886648, 2.62469840, -29.76245880, -68.08599091, 8.10184860, 87.76713562, 4.35706568, -150.67289734, -0.15682851, 0.20185634, -0.66319644, -0.70344102, 0.00000000, 0.00000000, 0.00000000, 0.00000000, 0.00000000, 0.00000000, 0.00000000
3, 3.1600, 158, 0.10640974, -0.98734725, 0.16120870, 0.12549986, 4.54238653, -1.05040002, 3.55875134, -40.12779617, 11.44055176, 24.70454979, 11.84301758, -66.68959045, 0.79955435, -0.23314697, 0.03277270, 0.55252260, 0.00000000, 0.00000000, 0.00000000, 0.00000000, 0.00000000, 0.00000000, 0.00000000
3, 3.1800, 159, 0.10546541, -0.98674816, 0.16023412, -0.08771266, 3.41388965, -0.64326757, 4.00421667, -39.63721085, 11.96984863, 24.70816231, 11.84533691, -66.62036133, 0.79987663, -0.23320238, 0.03263255, 0.55204099, 0.00000000, 0.00000000, 0.00000000, 0.00000000, 0.00000000, 0.00000000, 0.00000000
1, 3.1800, 159, 0.08111399, -1.00443542, 0.02817984, 1.80121934, 1.80845296, 2.80796504, -29.91107178, -68.25884247, 7.57669163, 87.81460571, 4.30415964, -150.63850403, -0.15726864, 0.20180199, -0.66352314, -0.70305026, 0.00000000, 0.00000000, 0.00000000, 0.00000000, 0.00000000, 0.00000000, 0.00000000
3, 3.2000, 160, 0.10184789, -0.98756027, 0.16116939, -0.30852386, 2.25613594, -0.46189919, 3.64784336, -40.36018372, 12.10217190, 24.75553894, 11.87961388, -66.59465790, 0.79984373, -0.23369442, 0.03256186, 0.55188477, 0.00000000, 0.00000000, 0.00000000, 0.00000000, 0.00000000, 0.00000000, 0.00000000
1, 3.2000, 160, 0.08117901, -1.00462961, 0.03015118, 1.89856112, 1.69121134, 3.03754926, -30.50552177, -67.97074127, 7.60586405, 87.86094666, 4.24833632, -150.60702515, -0.15771011, 0.20171201, -0.66385305, -0.70266563, 0.00000000, 0.00000000, 0.00000000, 0.00000000, 0.00000000, 0.00000000, 0.00000000
3, 3.2200, 161, 0.10038284, -0.98886251, 0.16070017, -0.27293754, 1.19202685, 0.04766214, 3.58844805, -40.05033493, 11.47362995, 24.75248337, 11.87527657, -66.57296753, 0.79996198, -0.23365974, 0.03253410, 0.55172950, 0.00000000, 0.00000000, 0.00000000, 0.00000000, 0.00000000, 0.00000000, 0.00000000
1, 3.2200, 161, 0.08054179, -1.00366056, 0.02993920, 1.59778476, 1.12204170, 3.07567334, -30.83247185, -68.05718231, 7.69338894, 87.90562439, 4.19389057, -150.58694458, -0.15807648, 0.20156232, -0.66419011, -0.70230764, 0.00000000, 0.00000000, 0.00000000, 0.00000000, 0.00000000, 0.00000000, 0.00000000
3, 3.2400, 162, 0.10110163, -0.98994386, 0.16017045, -0.22496139, 0.21148506, 0.31924495, 4.09331083, -39.99869537, 11.83752441, 24.74764442, 11.86851597, -66.57189941, 0.79998887, -0.23359592, 0.03255727, 0.55171621, 0.00000000, 0.00000000, 0.00000000, 0.00000000, 0.00000000, 0.00000000, 0.00000000
1, 3.2400, 162, 0.08036304, -1.00569665, 0.03065702, 1.25006258, 0.12433879, 3.15597820, -30.11912918, -69.09434509, 7.60586405, 87.93792725, 4.13427925, -150.58712769, -0.15837108, 0.20124725, -0.66449612, -0.70204216, 0.00000000, 0.00000000, 0.00000000, 0.00000000, 0.00000000, 0.00000000, 0.00000000
1, 3.2600, 163, 0.08108644, -1.00586903, 0.02984564, 1.12794197, -0.74247837, 3.40362310, -30.29746437, -68.34527588, 7.19741249, 87.96683502, 4.06931829, -150.60432434, -0.15859920, 0.20079669, -0.66482043, -0.70181257, 0.00000000, 0.00000000, 0.00000000, 0.00000000, 0.00000000, 0.00000000, 0.00000000
3, 3.2600, 163, 0.10013691, -0.99067092, 0.15753916, -0.41117200, -1.30425334, 0.77214837, 4.53877831, -39.84377289, 11.47362995, 24.75697327, 11.87613392, -66.61492920, 0.79974926, -0.23368300, 0.03263513, 0.55202204, 0.00000000, 0.00000000, 0.00000000, 0.00000000, 0.00000000, 0.00000000, 0.00000000
1, 3.2800, 164, 0.07659049, -1.00594902, 0.03055223, 1.11622906, -1.21007013, 3.45954967, -30.20829773, -68.92147827, 8.10184860, 87.99529266, 4.00186586, -150.63055420, -0.15878780, 0.20027815, -0.66516185, -0.70159459, 0.00000000, 0.00000000, 0.00000000, 0.00000000, 0.00000000, 0.00000000, 0.00000000
3, 3.2800, 164, 0.09402124, -0.99145871, 0.16013795, -0.22035921, -3.19127822, 1.01238275, 4.18240452, -39.97287750, 11.27514553, 24.74640465, 11.86612892, -66.68250275, 0.79946274, -0.23354499, 0.03279392, 0.55248588, 0.00000000, 0.00000000, 0.00000000, 0.00000000, 0.00000000, 0.00000000, 0.00000000
1, 3.3000, 165, 0.07212724, -1.00660574, 0.03109866, 0.85629135, -1.48695886, 3.21365476, -30.83247185, -68.63337708, 7.81009388, 88.01773071, 3.94085526, -150.66215515, -0.15891618, 0.19975883, -0.66546369, -0.70142722, 0.00000000, 0.00000000, 0.00000000, 0.00000000, 0.00000000, 0.00000000, 0.00000000
3, 3.3000, 165, 0.08013058, -0.99337798, 0.15533786, 0.06728630, -2.71006703, 1.10498703, 3.38056374, -39.55974579, 11.17589951, 24.74612617, 11.83227730, -66.72839355, 0.79930151, -0.23337753, 0.03312941, 0.55276996, 0.00000000, 0.00000000, 0.00000000, 0.00000000, 0.00000000, 0.00000000, 0.00000000
3, 3.3200, 166, 0.06894923, -0.99088615, 0.15604673, 0.16087985, -2.44521546, 1.29672039, 3.58844805, -39.61138916, 11.37438774, 24.74488640, 11.81302834, -66.78073120, 0.79908526, -0.23326699, 0.03336829, 0.55311465, 0.00000000, 0.00000000, 0.00000000, 0.00000000, 0.00000000, 0.00000000, 0.00000000
1, 3.3200, 166, 0.07018020, -1.00571263, 0.03249124, 0.71269721, -1.48150778, 2.71815324, -30.44607735, -68.40290070, 7.60586405, 88.04179382, 3.88649678, -150.69392395, -0.15900147, 0.19928066, -0.66576350, -0.70125937, 0.00000000, 0.00000000, 0.00000000, 0.00000000, 0.00000000, 0.00000000, 0.00000000
1, 3.3400, 167, 0.06905543, -1.00578082, 0.03312124, 0.43281439, -1.54876614, 2.17594528, -30.38663292, -68.48933411, 7.86844635, 88.05292511, 3.84521890, -150.72576904, -0.15903156, 0.19886276, -0.66596055, -0.70118415, 0.00000000, 0.00000000, 0.00000000, 0.00000000, 0.00000000, 0.00000000, 0.00000000
3, 3.3400, 167, 0.06785141, -0.99014944, 0.16055672, 1.02743936, -1.52152169, 1.95207417, 4.00421667, -40.25690079, 11.07665825, 24.76123810, 11.77666569, -66.81385040, 0.79895598, -0.23320743, 0.03377588, 0.55330187, 0.00000000, 0.00000000, 0.00000000, 0.00000000, 0.00000000, 0.00000000, 0.00000000
3, 3.3600, 168, 0.07227026, -0.99234730, 0.16479458, 1.43268466, -0.88829505, 2.42880487, 4.21210146, -39.89541245, 11.24206352, 24.79902649, 11.71363258, -66.82686615, 0.79892671, -0.23318285, 0.03443762, 0.55331367, 0.00000000, 0.00000000, 0.00000000, 0.00000000, 0.00000000, 0.00000000, 0.00000000
1, 3.3600, 168, 0.06771133, -1.00646853, 0.03098760, 0.08144929, -1.62560463, 1.65824258, -30.68385887, -69.41124725, 7.95597076, 88.05604553, 3.81342530, -150.75866699, -0.15901297, 0.19848458, -0.66609329, -0.70116943, 0.00000000, 0.00000000, 0.00000000, 0.00000000, 0.00000000, 0.00000000, 0.00000000
3, 3.3800, 169, 0.07410726, -0.99249816, 0.16086893, 1.32251847, -0.65834075, 2.58898664, 4.24179983, -40.46346664, 11.67211819, 24.82048988, 11.66303921, -66.84436798, 0.79888713, -0.23309897, 0.03494023, 0.55337459, 0.00000000, 0.00000000, 0.00000000, 0.00000000, 0.00000000, 0.00000000, 0.00000000
1, 3.3800, 169, 0.07110547, -1.00665867, 0.03190462, -0.25552809, -2.12137222, 1.15821552, -30.29746437, -69.00791168, 8.01432323, 88.05473328, 3.79245925, -150.80369568, -0.15886384, 0.19809486, -0.66620040, -0.70121169, 0.00000000, 0.00000000, 0.00000000, 0.00000000, 0.00000000, 0.00000000, 0.00000000
1, 3.4000, 170, 0.06631996, -1.00556314, 0.03432452, -0.51264679, -2.32513285, 0.75581706, -30.92164040, -68.40290070, 8.48112774, 88.04261017, 3.77743363, -150.84947205, -0.15869346, 0.19772139, -0.66623193, -0.70132565, 0.00000000, 0.00000000, 0.00000000, 0.00000000, 0.00000000, 0.00000000, 0.00000000
3, 3.4000, 170, 0.07666809, -0.98853904, 0.16193885, 1.11695135, -0.47759259, 2.62263322, 4.24179983, -40.77331161, 11.77136040, 24.85327721, 11.60540771, -66.85675812, 0.79886144, -0.23306373, 0.03553761, 0.55338848, 0.00000000, 0.00000000, 0.00000000, 0.00000000, 0.00000000, 0.00000000, 0.00000000
1, 3.4200, 171, 0.07209727, -1.00489438, 0.03337713, -0.73313051, -2.08572769, 0.32157272, -31.01080513, -68.11479950, 8.51030731, 88.03284454, 3.78099203, -150.89295959, -0.15842314, 0.19747655, -0.66624081, -0.70144731, 0.00000000, 0.00000000, 0.00000000, 0.00000000, 0.00000000, 0.00000000, 0.00000000
3, 3.4200, 171, 0.08364882, -0.98878121, 0.16620357, 1.21159685, -0.98714483, 2.61068344, 3.79633236, -41.18644333, 12.23449612, 24.87270546, 11.55587578, -66.88474274, 0.79877335, -0.23296688, 0.03604400, 0.55352378, 0.00000000, 0.00000000, 0.00000000, 0.00000000, 0.00000000, 0.00000000, 0.00000000
1, 3.4400, 172, 0.07780763, -1.00592935, 0.02941718, -0.95446569, -2.91327858, 0.44147593, -30.05968475, -68.02837372, 8.13102055, 88.01068115, 3.77064395, -150.95233154, -0.15815903, 0.19703840, -0.66622561, -0.70164454, 0.00000000, 0.00000000, 0.00000000, 0.00000000, 0.00000000, 0.00000000, 0.00000000
3, 3.4400, 172, 0.09316591, -0.99086261, 0.16309617, 0.95130634, -2.34108138, 2.75718331, 4.09331083, -39.92123413, 11.53979397, 24.88459396, 11.50735378, -66.93901062, 0.79857165, -0.23281336, 0.03656000, 0.55384535, 0.00000000, 0.00000000, 0.00000000, 0.00000000, 0.00000000, 0.00000000, 0.00000000
1, 3.4600, 173, 0.07332040, -1.00339043, 0.03263521, -0.79241401, -3.32294703, 0.72211921, -30.68385887, -68.25884247, 8.13102055, 87.99191284, 3.75540972, -151.01914978, -0.15787216, 0.19653220, -0.66625232, -0.70182568, 0.00000000, 0.00000000, 0.00000000, 0.00000000, 0.00000000, 0.00000000, 0.00000000
3, 3.4600, 173, 0.09684244, -0.98755270, 0.16152582, 0.58379704, -2.99931812, 3.04509306, 3.32116842, -39.74048615, 11.27514553, 24.89562988, 11.46782494, -67.01547241, 0.79824841, -0.23268698, 0.03705230, 0.55433142, 0.00000000, 0.00000000, 0.00000000, 0.00000000, 0.00000000, 0.00000000, 0.00000000
1, 3.4800, 174, 0.07215910, -1.00358343, 0.03169359, -0.98987192, -3.50280595, 0.97467554, -30.74330330, -68.25884247, 8.21855259, 87.97225189, 3.73647261, -151.08955383, -0.15758662, 0.19598168, -0.66628587, -0.70201206, 0.00000000, 0.00000000, 0.00000000, 0.00000000, 0.00000000, 0.00000000, 0.00000000
3, 3.4800, 174, 0.09181511, -0.98744595, 0.16429313, 0.35319072, -3.51952958, 2.89173794, 3.97452021, -40.41182327, 11.96984863, 24.89364815, 11.42105007, -67.09336853, 0.79795700, -0.23243611, 0.03753626, 0.55482364, 0.00000000, 0.00000000, 0.00000000, 0.00000000, 0.00000000, 0.00000000, 0.00000000
3, 3.5000, 175, 0.08644007, -0.98928291, 0.15963481, 0.69601899, -2.23884964, 2.70375371, 3.64784336, -39.89541245, 11.67211819, 24.90929604, 11.37802505, -67.14530945, 0.79774863, -0.23233293, 0.03802583, 0.55513316, 0.00000000, 0.00000000, 0.00000000, 0.00000000, 0.00000000, 0.00000000, 0.00000000
1, 3.5000, 175, 0.07186121, -1.00420678, 0.03302923, -1.10887980, -3.45387292, 1.10990858, -30.44607735, -68.43170929, 8.88958645, 87.94861603, 3.71324301, -151.15792847, -0.15734556, 0.19541168, -0.66629857, -0.70221287, 0.00000000, 0.00000000, 0.00000000, 0.00000000, 0.00000000, 0.00000000, 0.00000000
3, 3.5200, 176, 0.08941876, -0.98995560, 0.15803154, 0.69863147, -0.96394235, 2.33942437, 4.44968414, -42.03852463, 11.87060642, 24.91808891, 11.33457279, -67.17167664, 0.79767847, -0.23218830, 0.03843333, 0.55526620, 0.00000000, 0.00000000, 0.00000000, 0.00000000, 0.00000000, 0.00000000, 0.00000000
3, 3.5400, 177, 0.09338503, -0.98925716, 0.16356638, 0.32002947, -1.88182330, 2.36100149, 3.94482160, -40.41182327, 11.57287598, 24.91817474, 11.29352665, -67.21723175, 0.79752880, -0.23198728, 0.03882011, 0.55553824, 0.00000000, 0.00000000, 0.00000000, 0.00000000, 0.00000000, 0.00000000, 0.00000000
1, 3.5200, 176, 0.07319368, -1.00494730, 0.02712765, -1.15115631, -3.27847457, 1.21904612, -30.86219215, -67.97074127, 8.04349613, 87.92433929, 3.69216800, -151.22436523, -0.15710440, 0.19486494, -0.66629982, -0.70241767, 0.00000000, 0.00000000, 0.00000000, 0.00000000, 0.00000000, 0.00000000, 0.00000000
3, 3.5600, 178, 0.09217367, -0.98859209, 0.16098064, 0.02565663, -2.28470612, 2.38027716, 3.79633236, -39.89541245, 12.36682415, 24.92329979, 11.26621819, -67.27747345, 0.79727370, -0.23187844, 0.03916253, 0.55592579, 0.00000000, 0.00000000, 0.00000000, 0.00000000, 0.00000000, 0.00000000, 0.00000000
1, 3.5400, 177, 0.07362804, -1.00531757, 0.02709632, -0.86574948, -3.21595144, 1.44389856, -30.80274773, -68.17241669, 7.89761829, 87.90605927, 3.66163969, -151.28910828, -0.15691908, 0.19427918, -0.66635102, -0.70257276, 0.00000000, 0.00000000, 0.00000000, 0.00000000, 0.00000000, 0.00000000, 0.00000000
1, 3.5600, 178, 0.06773880, -1.00381720, 0.03011452, -0.88951361, -2.88965678, 1.66642618, -30.89191628, -68.46051788, 7.92679834, 87.88771820, 3.62690258, -151.34748840, -0.15679750, 0.19370484, -0.66639793, -0.70271391, 0.00000000, 0.00000000, 0.00000000, 0.00000000, 0.00000000, 0.00000000, 0.00000000
3, 3.5800, 179, 0.09413359, -0.98933911, 0.16205576, -0.29625994, -1.80544257, 2.64074540, 3.82603097, -40.07615662, 12.13525391, 24.91105080, 11.21984959, -67.32266998, 0.79715943, -0.23156694, 0.03952656, 0.55619353, 0.00000000, 0.00000000, 0.00000000, 0.00000000, 0.00000000, 0.00000000, 0.00000000
1, 3.5800, 179, 0.07318941, -1.00632012, 0.03156841, -1.06222093, -3.20596862, 1.94479251, -30.38663292, -68.92147827, 7.81009388, 87.87437439, 3.59099317, -151.41308594, -0.15663010, 0.19308825, -0.66648912, -0.70283437, 0.00000000, 0.00000000, 0.00000000, 0.00000000, 0.00000000, 0.00000000, 0.00000000
1, 3.6000, 180, 0.07117660, -1.00293875, 0.03089916, -1.01650512, -3.11854410, 2.23974800, -30.47579956, -68.40290070, 7.66421652, 87.85528564, 3.54467010, -151.47640991, -0.15654776, 0.19241406, -0.66655874, -0.70297158, 0.00000000, 0.00000000, 0.00000000, 0.00000000, 0.00000000, 0.00000000, 0.00000000
3, 3.6000, 180, 0.09590602, -0.98747051, 0.16455431, -0.12256932, -1.89810061, 2.67912102, 3.67754197, -39.89541245, 11.93676567, 24.91592979, 11.18948460, -67.37987518, 0.79692441, -0.23144288, 0.03988320, 0.55655634, 0.00000000, 0.00000000, 0.00000000, 0.00000000, 0.00000000, 0.00000000, 0.00000000
1, 3.6200, 181, 0.07073210, -1.00304878, 0.02993282, -1.17984414, -3.43977094, 2.56258225, -30.68385887, -68.46051788, 8.18937302, 87.83821869, 3.49704504, -151.54649353, -0.15642804, 0.19169530, -0.66665369, -0.70310462, 0.00000000, 0.00000000, 0.00000000, 0.00000000, 0.00000000, 0.00000000, 0.00000000
3, 3.6200, 181, 0.09583164, -0.98557985, 0.16617335, -0.55412877, -2.84079790, 2.88494325, 3.85572767, -40.12779617, 11.27514553, 24.89612389, 11.14164448, -67.44837952, 0.79671431, -0.23106337, 0.04026760, 0.55698723, 0.00000000, 0.00000000, 0.00000000, 0.00000000, 0.00000000, 0.00000000, 0.00000000
3, 3.6400, 182, 0.09771157, -0.98834145, 0.16547057, -1.06911898, -3.55337286, 3.14102793, 3.43995905, -40.25690079, 11.34130573, 24.86487770, 11.09220314, -67.53320313, 0.79645002, -0.23059075, 0.04064021, 0.55753362, 0.00000000, 0.00000000, 0.00000000, 0.00000000, 0.00000000, 0.00000000, 0.00000000
1, 3.6400, 182, 0.07213116, -1.00561416, 0.02808629, -1.24415672, -3.47880840, 3.04719830, -30.71357918, -68.43170929, 7.98514318, 87.81649017, 3.43368292, -151.61756897, -0.15640262, 0.19086891, -0.66674805, -0.70324564, 0.00000000, 0.00000000, 0.00000000, 0.00000000, 0.00000000, 0.00000000, 0.00000000
1, 3.6600, 183, 0.07214586, -1.00566709, 0.02995313, -1.13135266, -3.70824170, 3.54616261, -30.59469032, -68.54694366, 7.75174141, 87.79783630, 3.36117935, -151.69296265, -0.15639940, 0.18996610, -0.66688299, -0.70336282, 0.00000000, 0.00000000, 0.00000000, 0.00000000, 0.00000000, 0.00000000, 0.00000000
3, 3.6600, 183, 0.10015106, -0.98957354, 0.16440372, -1.32602024, -4.29930973, 3.16216898, 3.11328411, -40.05033493, 11.73828220, 24.83634186, 11.05662251, -67.63952637, 0.79605108, -0.23019210, 0.04096946, 0.55824357, 0.00000000, 0.00000000, 0.00000000, 0.00000000, 0.00000000, 0.00000000, 0.00000000
1, 3.6800, 184, 0.06543244, -1.00307357, 0.02907602, -1.16196728, -3.67421436, 3.84949112, -30.65413475, -68.51814270, 8.24772549, 87.78290558, 3.28443670, -151.76846313, -0.15641417, 0.18904181, -0.66704708, -0.70345300, 0.00000000, 0.00000000, 0.00000000, 0.00000000, 0.00000000, 0.00000000, 0.00000000
3, 3.6800, 184, 0.09585236, -0.98798740, 0.16140971, -1.49951124, -4.76571035, 3.36536121, 3.55875134, -40.72167206, 11.10974026, 24.79421616, 11.00589275, -67.74964142, 0.79568601, -0.22962785, 0.04134756, 0.55896795, 0.00000000, 0.00000000, 0.00000000, 0.00000000, 0.00000000, 0.00000000, 0.00000000
1, 3.7000, 185, 0.06455019, -1.00533700, 0.02847432, -1.38763189, -3.74679112, 3.98122239, -31.30803299, -68.77743530, 8.18937302, 87.76062012, 3.20258164, -151.84365845, -0.15647288, 0.18807797, -0.66717291, -0.70357895, 0.00000000, 0.00000000, 0.00000000, 0.00000000, 0.00000000, 0.00000000, 0.00000000
3, 3.7000, 185, 0.09223977, -0.98748296, 0.15966792, -1.77076817, -5.11475563, 3.58104277, 3.46965742, -40.43764496, 11.60595417, 24.75042343, 10.96022606, -67.87172699, 0.79525614, -0.22907028, 0.04170427, 0.55978155, 0.00000000, 0.00000000, 0.00000000, 0.00000000, 0.00000000, 0.00000000, 0.00000000
1, 3.7200, 186, 0.06383274, -1.00455403, 0.02583479, -1.24777377, -3.58172631, 4.41224194, -31.09997368, -68.60457611, 8.88958645, 87.74420929, 3.11533284, -151.91664124, -0.15656695, 0.18710186, -0.66733897, -0.70366073, 0.00000000, 0.00000000, 0.00000000, 0.00000000, 0.00000000, 0.00000000, 0.00000000
3, 3.7200, 186, 0.08958427, -0.98750854, 0.15729308, -2.02088833, -4.98835611, 3.97827911, 3.94482160, -40.02451706, 11.96984863, 24.69828987, 10.89862633, -67.98869324, 0.79489398, -0.22838284, 0.04212250, 0.56054503, 0.00000000, 0.00000000, 0.00000000, 0.00000000, 0.00000000, 0.00000000, 0.00000000
1, 3.7400, 187, 0.06437622, -1.00565016, 0.02656816, -1.39453113, -3.82015634, 4.66311312, -30.59469032, -67.68264771, 8.53948021, 87.72378540, 3.01975298, -151.99417114, -0.15668862, 0.18604298, -0.66750050, -0.70376128, 0.00000000, 0.00000000, 0.00000000, 0.00000000, 0.00000000, 0.00000000, 0.00000000
3, 3.7400, 187, 0.09206083, -0.99108046, 0.15354201, -2.14737868, -4.61139870, 4.16194868, 3.85572767, -40.51510620, 11.70520020, 24.64372063, 10.83277512, -68.09957886, 0.79457211, -0.22766034, 0.04254578, 0.56126267, 0.00000000, 0.00000000, 0.00000000, 0.00000000, 0.00000000, 0.00000000, 0.00000000
1, 3.7600, 188, 0.06333254, -1.00438833, 0.02535797, -1.32440495, -3.97634673, 4.99566174, -30.59469032, -68.40290070, 8.13102055, 87.70486450, 2.91760874, -152.07566833, -0.15682170, 0.18492256, -0.66768700, -0.70384997, 0.00000000, 0.00000000, 0.00000000, 0.00000000, 0.00000000, 0.00000000, 0.00000000
3, 3.7600, 188, 0.09652786, -0.98991400, 0.15703742, -2.12015748, -5.23402357, 4.29706240, 3.58844805, -40.07615662, 11.01049328, 24.59216690, 10.77746773, -68.23007965, 0.79412889, -0.22699921, 0.04294621, 0.56212658, 0.00000000, 0.00000000, 0.00000000, 0.00000000, 0.00000000, 0.00000000, 0.00000000
3, 3.7800, 189, 0.09864779, -0.98908216, 0.15940335, -2.38189197, -6.57335758, 4.56892729, 3.94482160, -39.66302872, 11.37438774, 24.52882576, 10.70926476, -68.38497925, 0.79360938, -0.22618680, 0.04342732, 0.56314981, 0.00000000, 0.00000000, 0.00000000, 0.00000000, 0.00000000, 0.00000000, 0.00000000
1, 3.7800, 189, 0.06203952, -1.00630927, 0.02583464, -1.53252065, -4.79924965, 5.52213717, -30.95136070, -67.97074127, 7.75174141, 87.68437958, 2.80761886, -152.17387390, -0.15690072, 0.18365459, -0.66790187, -0.70396048, 0.00000000, 0.00000000, 0.00000000, 0.00000000, 0.00000000, 0.00000000, 0.00000000
3, 3.8000, 190, 0.09651031, -0.98924100, 0.16213781, -2.70007324, -9.58482456, 5.17536020, 3.61814666, -40.48928833, 11.57287598, 24.46103096, 10.64428139, -68.60575867, 0.79276669, -0.22533207, 0.04399106, 0.56463391, 0.00000000, 0.00000000, 0.00000000, 0.00000000, 0.00000000, 0.00000000, 0.00000000
1, 3.8000, 190, 0.05988881, -1.00619411, 0.02453262, -1.64312375, -5.22770357, 5.72292757, -31.33775520, -68.20123291, 7.98514318, 87.65917969, 2.69128895, -152.28060913, -0.15697187, 0.18229136, -0.66810954, -0.70410186, 0.00000000, 0.00000000, 0.00000000, 0.00000000, 0.00000000, 0.00000000, 0.00000000
1, 3.8200, 191, 0.05487692, -1.00438309, 0.02735520, -1.84013319, -5.84103489, 5.91839218, -30.92164040, -68.14360809, 7.75174141, 87.63411713, 2.57202268, -152.39939880, -0.15698531, 0.18083930, -0.66833925, -0.70425528, 0.00000000, 0.00000000, 0.00000000, 0.00000000, 0.00000000, 0.00000000, 0.00000000
3, 3.8200, 191, 0.08533380, -0.98958582, 0.15857328, -2.78897119, -11.88982296, 5.96963596, 3.64784336, -40.10197830, 11.70520020, 24.38112831, 10.56366730, -68.87071991, 0.79175180, -0.22430193, 0.04468945, 0.56641030, 0.00000000, 0.00000000, 0.00000000, 0.00000000, 0.00000000, 0.00000000, 0.00000000
1, 3.8400, 192, 0.05084662, -1.00621319, 0.02584131, -2.16394830, -5.95224810, 5.85570288, -31.42692184, -68.43170929, 7.75174141, 87.59891510, 2.45215964, -152.51991272, -0.15700689, 0.17935885, -0.66850734, -0.70446950, 0.00000000, 0.00000000, 0.00000000, 0.00000000, 0.00000000, 0.00000000, 0.00000000
1, 3.8600, 193, 0.05060167, -1.00612497, 0.02594324, -2.52119493, -5.92694902, 5.68294334, -31.07025146, -67.94194031, 7.75174141, 87.55688477, 2.33469057, -152.63925171, -0.15703134, 0.17788979, -0.66862470, -0.70472515, 0.00000000, 0.00000000, 0.00000000, 0.00000000, 0.00000000, 0.00000000, 0.00000000
3, 3.8400, 192, 0.07373092, -0.98831886, 0.15938504, -3.29675460, -12.73501015, 6.56260014, 3.61814666, -40.07615662, 12.13525391, 24.29105186, 10.47389793, -69.15293884, 0.79068136, -0.22314949, 0.04543144, 0.56829858, 0.00000000, 0.00000000, 0.00000000, 0.00000000, 0.00000000, 0.00000000, 0.00000000
1, 3.8800, 194, 0.04693015, -1.00709486, 0.02573068, -2.68642831, -5.72679424, 5.56974602, -31.78359222, -67.94194031, 7.83926630, 87.51515198, 2.21979547, -152.75538635, -0.15705876, 0.17645471, -0.66873181, -0.70497811, 0.00000000, 0.00000000, 0.00000000, 0.00000000, 0.00000000, 0.00000000, 0.00000000
3, 3.8600, 193, 0.07055988, -0.98646957, 0.16321939, -2.49070382, -12.49274158, 6.99629545, 3.43995905, -39.79212952, 11.10974026, 24.22383881, 10.37574577, -69.43014526, 0.78959942, -0.22211440, 0.04633152, 0.57013273, 0.00000000, 0.00000000, 0.00000000, 0.00000000, 0.00000000, 0.00000000, 0.00000000
1, 3.9000, 195, 0.04872146, -1.00815952, 0.02409066, -3.35826039, -5.88581467, 5.38175726, -32.52665710, -67.56740570, 8.01432323, 87.45564270, 2.10519028, -152.87440491, -0.15709281, 0.17497942, -0.66873050, -0.70533931, 0.00000000, 0.00000000, 0.00000000, 0.00000000, 0.00000000, 0.00000000, 0.00000000
3, 3.8800, 194, 0.06645350, -0.98786378, 0.16703334, -2.92192912, -14.36192894, 7.13478756, 3.35086703, -40.74748993, 10.44811535, 24.13789558, 10.27847290, -69.74969482, 0.78833520, -0.22093368, 0.04720884, 0.57226521, 0.00000000, 0.00000000, 0.00000000, 0.00000000, 0.00000000, 0.00000000, 0.00000000
1, 3.9200, 196, 0.04333211, -1.00749314, 0.02061968, -3.92197990, -6.59556913, 5.35634804, -32.08081818, -68.14360809, 8.51030731, 87.38735199, 1.99127424, -153.00827026, -0.15704317, 0.17340900, -0.66869360, -0.70577312, 0.00000000, 0.00000000, 0.00000000, 0.00000000, 0.00000000, 0.00000000, 0.00000000
3, 3.9000, 195, 0.06272184, -0.98746759, 0.16712514, -3.32102323, -15.80499458, 7.87374544, 3.67754197, -39.81795120, 11.53979397, 24.05035210, 10.17105865, -70.09458160, 0.78695625, -0.21967946, 0.04819214, 0.57455927, 0.00000000, 0.00000000, 0.00000000, 0.00000000, 0.00000000, 0.00000000, 0.00000000
